ID;block;trial;phase_number;phase;aversive_rating;duration;move_sum;mpm;rt_mean;range_x;range_y;n_uniquePlaces;exploration;saved;SP1_found;SP2_found;SP3_found;SP4_found;trial_efficiency;mean_mpm_block;sum_escapes_block;block_efficiency;no_mov_no_esc
CSE01;1;1;1;NoStress;6;5;0;0;NA;0;0;1;12;0;0;0;0;0;0;0;0;NA;1
CSE01;1;1;2;Stress;6;5;6;72;0.792137147981333;0;4;6;72;0;0;0;0;0;72;223.2;0;223.2;0
CSE01;1;2;1;NoStress;6;5;0;0;NA;0;0;1;12;0;0;0;0;0;0;0;0;NA;1
CSE01;1;2;2;Stress;6;5;21;252;0.237823680240714;7;7;22;264;0;0;0;0;0;252;223.2;0;223.2;0
CSE01;1;3;1;NoStress;6;5;0;0;NA;0;0;1;12;0;0;0;0;0;0;0;0;NA;1
CSE01;1;3;2;Stress;6;5;19;228;0.262556682903758;6;5;20;240;0;0;0;0;0;228;223.2;0;223.2;0
CSE01;1;4;1;NoStress;6;5;0;0;NA;0;0;1;12;0;0;0;0;0;0;0;0;NA;1
CSE01;1;4;2;Stress;6;5;23;276;0.211511896271174;6;5;23;276;0;0;0;0;0;276;223.2;0;223.2;0
CSE01;1;5;1;NoStress;6;5;0;0;NA;0;0;1;12;0;0;0;0;0;0;0;0;NA;1
CSE01;1;5;2;Stress;6;5;24;288;0.201652327606446;7;6;22;264;0;0;0;0;0;288;223.2;0;223.2;0
CSE01;2;1;1;NoStress;6;5;12;144;0.330879246753917;5;6;13;156;0;0;0;0;0;144;57.6;0;57.6;0
CSE01;2;1;2;Stress;6;5;21;252;0.231869632307524;6;5;21;252;0;0;0;0;0;252;283.2;0;283.2;0
CSE01;2;2;1;NoStress;6;5;7;84;0.249307077123286;6;1;8;96;0;0;0;0;0;84;57.6;0;57.6;0
CSE01;2;2;2;Stress;6;5;23;276;0.213770359580043;6;4;20;240;0;0;0;0;0;276;283.2;0;283.2;0
CSE01;2;3;1;NoStress;6;5;0;0;NA;0;0;1;12;0;0;0;0;0;0;57.6;0;57.6;0
CSE01;2;3;2;Stress;6;5;26;312;0.189633957237923;7;4;24;288;0;0;0;0;0;312;283.2;0;283.2;0
CSE01;2;4;1;NoStress;6;5;5;60;0.9939823356594;0;2;3;36;0;0;0;0;0;60;57.6;0;57.6;0
CSE01;2;4;2;Stress;6;5;26;312;0.191646077518769;6;4;22;264;0;0;0;0;0;312;283.2;0;283.2;0
CSE01;2;5;1;NoStress;6;5;0;0;NA;0;0;1;12;0;0;0;0;0;0;57.6;0;57.6;0
CSE01;2;5;2;Stress;6;5;22;264;0.224467645374823;5;4;19;228;0;0;0;0;0;264;283.2;0;283.2;0
CSE02;1;1;1;NoStress;6;5;5;60;0.7418776917798;1;1;5;60;0;0;0;0;0;60;104.40396039604;1;52.2019801980198;0
CSE02;1;1;2;Stress;6;5;8;96;0.616590784460537;1;6;8;96;0;0;0;0;0;96;170.214303753874;2;56.7381012512915;0
CSE02;1;2;1;NoStress;6;5;5;60;0.9222900387282;0;5;6;72;0;0;0;0;0;60;104.40396039604;1;52.2019801980198;0
CSE02;1;2;2;Stress;6;3.1;10;193.548387096774;0.3081585733249;4;6;11;212.903225806452;1;1;0;0;0;96.7741935483871;170.214303753874;2;56.7381012512915;0
CSE02;1;3;1;NoStress;6;5;6;72;0.827930386639;2;4;7;84;0;0;0;0;0;72;104.40396039604;1;52.2019801980198;0
CSE02;1;3;2;Stress;6;5;15;180;0.320957483482;7;7;16;192;0;0;0;0;0;180;170.214303753874;2;56.7381012512915;0
CSE02;1;4;1;NoStress;6;5;11;132;0.432152218889273;6;5;12;144;0;0;0;0;0;132;104.40396039604;1;52.2019801980198;0
CSE02;1;4;2;Stress;6;5;14;168;0.341717165976214;7;7;15;180;0;0;0;0;0;168;170.214303753874;2;56.7381012512915;0
CSE02;1;5;1;NoStress;6;3.03;10;198.019801980198;0.2995596868886;4;6;11;217.821782178218;1;1;0;0;0;99.009900990099;104.40396039604;1;52.2019801980198;0
CSE02;1;5;2;Stress;6;2.81;10;213.523131672598;0.2788644330232;4;6;11;234.875444839858;1;1;0;0;0;106.761565836299;170.214303753874;2;56.7381012512915;0
CSE02;2;1;1;NoStress;6;5;13;156;0.376276403108846;6;6;13;156;0;0;0;0;0;156;165.6;0;165.6;0
CSE02;2;1;2;Stress;6;5;16;192;0.304314692156931;7;7;17;204;0;0;0;0;0;192;205.342372881356;1;102.671186440678;0
CSE02;2;2;1;NoStress;6;5;14;168;0.353517673268857;7;7;15;180;0;0;0;0;0;168;165.6;0;165.6;0
CSE02;2;2;2;Stress;6;5;20;240;0.238025159771695;6;6;21;252;0;0;0;0;0;240;205.342372881356;1;102.671186440678;0
CSE02;2;3;1;NoStress;6;5;18;216;0.277711036517389;7;7;19;228;0;0;0;0;0;216;165.6;0;165.6;0
CSE02;2;3;2;Stress;6;5;18;216;0.267939469749389;7;4;18;216;0;0;0;0;0;216;205.342372881356;1;102.671186440678;0
CSE02;2;4;1;NoStress;6;5;16;192;0.30077368204225;5;7;17;204;0;0;0;0;0;192;165.6;0;165.6;0
CSE02;2;4;2;Stress;6;5;18;216;0.267267332580444;7;7;19;228;0;0;0;0;0;216;205.342372881356;1;102.671186440678;0
CSE02;2;5;1;NoStress;6;5;8;96;0.600158525427375;3;2;6;72;0;0;0;0;0;96;165.6;0;165.6;0
CSE02;2;5;2;Stress;6;2.95;8;162.71186440678;0.365677558742375;7;1;9;183.050847457627;1;1;0;0;0;81.3559322033898;205.342372881356;1;102.671186440678;0
CSE05;1;1;1;NoStress;6;5;10;120;0.4152708273765;4;6;11;132;0;0;0;0;0;120;154.473427883329;2;51.4911426277763;0
CSE05;1;1;2;Stress;6;5;0;0;NA;0;0;1;12;0;0;0;0;0;0;191.504300423985;2;63.8347668079952;0
CSE05;1;2;1;NoStress;6;5;9;108;0.524098443582889;3;3;10;120;0;0;0;0;0;108;154.473427883329;2;51.4911426277763;0
CSE05;1;2;2;Stress;6;5;20;240;0.24995207827775;7;5;21;252;0;0;0;0;0;240;191.504300423985;2;63.8347668079952;0
CSE05;1;3;1;NoStress;6;5;0;0;NA;0;0;1;12;0;0;0;0;0;0;154.473427883329;2;51.4911426277763;0
CSE05;1;3;2;Stress;6;5;19;228;0.258847422067842;7;2;20;240;0;0;0;0;0;228;191.504300423985;2;63.8347668079952;0
CSE05;1;4;1;NoStress;6;4.04;17;252.475247524752;0.236216413502588;7;7;18;267.326732673267;1;0;1;0;0;126.237623762376;154.473427883329;2;51.4911426277763;0
CSE05;1;4;2;Stress;6;2.54;9;212.59842519685;0.280222738666;2;7;10;236.220472440945;1;0;0;0;1;106.299212598425;191.504300423985;2;63.8347668079952;0
CSE05;1;5;1;NoStress;6;1.85;9;291.891891891892;0.203313438582444;2;7;10;324.324324324324;1;0;0;0;1;145.945945945946;154.473427883329;2;51.4911426277763;0
CSE05;1;5;2;Stress;6;1.95;9;276.923076923077;0.213874626956444;2;7;10;307.692307692308;1;0;0;0;1;138.461538461538;191.504300423985;2;63.8347668079952;0
CSE05;2;1;1;NoStress;6;5;11;132;0.273295019949;4;7;12;144;0;0;0;0;0;132;26.4;0;26.4;0
CSE05;2;1;2;Stress;6;0.98;3;183.673469387755;0.319602941284;1;2;4;244.897959183673;1;0;0;0;1;91.8367346938775;228.404828811935;5;38.0674714686558;0
CSE05;2;2;1;NoStress;6;5;0;0;NA;0;0;1;12;0;0;0;0;0;0;26.4;0;26.4;0
CSE05;2;2;2;Stress;6;0.78;3;230.769230769231;0.251429628054333;1;2;4;307.692307692308;1;0;0;0;1;115.384615384615;228.404828811935;5;38.0674714686558;0
CSE05;2;3;1;NoStress;6;5;0;0;NA;0;0;1;12;0;0;0;0;0;0;26.4;0;26.4;0
CSE05;2;3;2;Stress;6;0.88;3;204.545454545455;0.284670506596667;1;2;4;272.727272727273;1;0;0;0;1;102.272727272727;228.404828811935;5;38.0674714686558;0
CSE05;2;4;1;NoStress;6;5;0;0;NA;0;0;1;12;0;0;0;0;0;0;26.4;0;26.4;0
CSE05;2;4;2;Stress;6;1.93;9;279.79274611399;0.2117152848538;2;4;9;279.79274611399;1;0;0;0;1;139.896373056995;228.404828811935;5;38.0674714686558;0
CSE05;2;5;1;NoStress;6;5;0;0;NA;0;0;1;12;0;0;0;0;0;0;26.4;0;26.4;0
CSE05;2;5;2;Stress;6;0.74;3;243.243243243243;0.236901110841;1;2;4;324.324324324324;1;0;0;0;1;121.621621621622;228.404828811935;5;38.0674714686558;0
CSE07;1;1;1;NoStress;7;5;11;132;0.447600792571464;4;5;11;132;0;0;0;0;0;132;200.247603027754;2;66.7492010092515;0
CSE07;1;1;2;Stress;7;5;23;276;0.216709543661548;7;7;21;252;0;0;0;0;0;276;244.217651809139;4;48.8435303618277;0
CSE07;1;2;1;NoStress;7;5;21;252;0.23196357106609;6;7;19;228;0;0;0;0;0;252;200.247603027754;2;66.7492010092515;0
CSE07;1;2;2;Stress;7;0.87;3;206.896551724138;0.281688656245333;1;2;4;275.862068965517;1;1;0;0;0;103.448275862069;244.217651809139;4;48.8435303618277;0
CSE07;1;3;1;NoStress;7;5;22;264;0.225164269247636;7;7;23;276;0;0;0;0;0;264;200.247603027754;2;66.7492010092515;0
CSE07;1;3;2;Stress;7;1.26;5;238.095238095238;0.24767285177;1;2;5;238.095238095238;1;1;0;0;0;119.047619047619;244.217651809139;4;48.8435303618277;0
CSE07;1;4;1;NoStress;7;1.23;3;146.341463414634;0.402450907320333;1;2;4;195.121951219512;1;1;0;0;0;73.1707317073171;200.247603027754;2;66.7492010092515;0
CSE07;1;4;2;Stress;7;0.73;3;246.575342465753;0.235227964195;1;2;4;328.767123287671;1;1;0;0;0;123.287671232877;244.217651809139;4;48.8435303618277;0
CSE07;1;5;1;NoStress;7;0.87;3;206.896551724138;0.281306129630333;1;2;4;275.862068965517;1;1;0;0;0;103.448275862069;200.247603027754;2;66.7492010092515;0
CSE07;1;5;2;Stress;7;0.71;3;253.521126760563;0.227955071044667;1;2;4;338.028169014085;1;1;0;0;0;126.760563380282;244.217651809139;4;48.8435303618277;0
CSE07;2;1;1;NoStress;7;5;21;252;0.231748103105905;5;4;22;264;0;0;0;0;0;252;488.868633336619;3;122.217158334155;0
CSE07;2;1;2;Stress;7;1.8;16;533.333333333333;0.111308707775138;6;4;17;566.666666666667;1;0;1;0;0;266.666666666667;401.057147912487;4;80.2114295824975;0
CSE07;2;2;1;NoStress;7;5;51;612;0.0960614354072608;7;7;49;588;0;0;0;0;0;612;488.868633336619;3;122.217158334155;0
CSE07;2;2;2;Stress;7;5;34;408;0.143968313042418;7;6;31;372;0;0;0;0;0;408;401.057147912487;4;80.2114295824975;0
CSE07;2;3;1;NoStress;7;1.58;18;683.544303797468;0.0863636104450722;6;6;15;569.620253164557;1;0;0;0;1;341.772151898734;488.868633336619;3;122.217158334155;0
CSE07;2;3;2;Stress;7;1.7;14;494.117647058824;0.119901705834657;7;6;15;529.411764705882;1;0;0;0;1;247.058823529412;401.057147912487;4;80.2114295824975;0
CSE07;2;4;1;NoStress;7;2.39;22;552.301255230126;0.107726502949427;7;7;22;552.301255230126;1;1;0;0;0;276.150627615063;488.868633336619;3;122.217158334155;0
CSE07;2;4;2;Stress;7;1.61;8;298.136645962733;0.198757358709375;6;1;9;335.403726708074;1;1;0;0;0;149.068322981366;401.057147912487;4;80.2114295824975;0
CSE07;2;5;1;NoStress;7;2.09;12;344.497607655502;0.172226987513333;6;6;13;373.205741626794;1;0;0;0;1;172.248803827751;488.868633336619;3;122.217158334155;0
CSE07;2;5;2;Stress;7;2.65;12;271.698113207547;0.219223184241;6;6;13;294.339622641509;1;0;0;0;1;135.849056603774;401.057147912487;4;80.2114295824975;0
CSE08;1;1;1;NoStress;3;5;5;60;0.8117202758088;1;2;4;48;0;0;0;0;0;60;124.049114598917;2;41.3497048663058;0
CSE08;1;1;2;Stress;3;4.96;11;133.064516129032;0.448773162436182;7;4;12;145.161290322581;1;0;0;1;0;66.5322580645161;204.885847356378;4;40.9771694712755;0
CSE08;1;2;1;NoStress;3;5;4;48;1.1817572105015;4;0;5;60;0;0;0;0;0;48;124.049114598917;2;41.3497048663058;0
CSE08;1;2;2;Stress;3;5;14;168;0.354785171495857;6;7;15;180;0;0;0;0;0;168;204.885847356378;4;40.9771694712755;0
CSE08;1;3;1;NoStress;3;5;14;168;0.337608505556429;7;7;15;180;0;0;0;0;0;168;124.049114598917;2;41.3497048663058;0
CSE08;1;3;2;Stress;3;3.24;11;203.703703703704;0.292124705040545;7;4;12;222.222222222222;1;0;0;1;0;101.851851851852;204.885847356378;4;40.9771694712755;0
CSE08;1;4;1;NoStress;3;3.79;11;174.142480211082;0.342640414202636;7;4;12;189.973614775726;1;0;0;1;0;87.0712401055409;124.049114598917;2;41.3497048663058;0
CSE08;1;4;2;Stress;3;2.36;11;279.661016949153;0.212544749326182;7;4;12;305.084745762712;1;0;0;1;0;139.830508474576;204.885847356378;4;40.9771694712755;0
CSE08;1;5;1;NoStress;3;3.88;11;170.103092783505;0.350723329329909;7;4;12;185.567010309278;1;0;0;1;0;85.0515463917526;124.049114598917;2;41.3497048663058;0
CSE08;1;5;2;Stress;3;2;8;240;0.246764182490625;4;4;9;270;1;1;0;0;0;120;204.885847356378;4;40.9771694712755;0
CSE08;2;1;1;NoStress;3;5;15;180;0.316658911864267;7;6;16;192;0;0;0;0;0;180;241.047638166499;3;60.2619095416248;0
CSE08;2;1;2;Stress;3;5;20;240;0.23204217504615;7;7;21;252;0;0;0;0;0;240;244.85254493722;3;61.2131362343051;0
CSE08;2;2;1;NoStress;3;5;19;228;0.257843402863316;7;7;20;240;0;0;0;0;0;228;241.047638166499;3;60.2619095416248;0
CSE08;2;2;2;Stress;3;5;17;204;0.291613388338294;7;3;18;216;0;0;0;0;0;204;244.85254493722;3;61.2131362343051;0
CSE08;2;3;1;NoStress;3;2.81;13;277.580071174377;0.213890091543462;6;7;14;298.932384341637;1;0;0;1;0;138.790035587189;241.047638166499;3;60.2619095416248;0
CSE08;2;3;2;Stress;3;2.89;13;269.896193771626;0.220995961737615;6;7;14;290.657439446367;1;0;0;1;0;134.948096885813;244.85254493722;3;61.2131362343051;0
CSE08;2;4;1;NoStress;3;2.7;13;288.888888888889;0.206209792014538;6;7;14;311.111111111111;1;0;0;1;0;144.444444444444;241.047638166499;3;60.2619095416248;0
CSE08;2;4;2;Stress;3;2.92;13;267.123287671233;0.222982572146923;6;7;14;287.671232876712;1;0;0;1;0;133.561643835616;244.85254493722;3;61.2131362343051;0
CSE08;2;5;1;NoStress;3;1.56;6;230.769230769231;0.256617078290833;5;1;7;269.230769230769;1;0;1;0;0;115.384615384615;241.047638166499;3;60.2619095416248;0
CSE08;2;5;2;Stress;3;1.48;6;243.243243243243;0.243030371454667;5;1;7;283.783783783784;1;0;1;0;0;121.621621621622;244.85254493722;3;61.2131362343051;0
CSE09;1;1;1;NoStress;3;5;3;36;1.60489203968467;1;1;4;48;0;0;0;0;0;36;118.828991622631;4;23.7657983245263;0
CSE09;1;1;2;Stress;3;5;14;168;0.314842886782429;7;7;15;180;0;0;0;0;0;168;186.243515508804;4;37.2487031017608;0
CSE09;1;2;1;NoStress;3;3.61;3;49.8614958448753;1.19605401314933;3;0;4;66.4819944598338;1;0;0;1;0;24.9307479224377;118.828991622631;4;23.7657983245263;0
CSE09;1;2;2;Stress;3;1.22;3;147.540983606557;0.400392953233667;3;0;4;196.72131147541;1;0;0;1;0;73.7704918032787;186.243515508804;4;37.2487031017608;0
CSE09;1;3;1;NoStress;3;1.24;3;145.161290322581;0.405082162578667;3;0;4;193.548387096774;1;0;0;1;0;72.5806451612903;118.828991622631;4;23.7657983245263;0
CSE09;1;3;2;Stress;3;0.91;3;197.802197802198;0.296359887817;3;0;4;263.736263736264;1;0;0;1;0;98.9010989010989;186.243515508804;4;37.2487031017608;0
CSE09;1;4;1;NoStress;3;1.36;3;132.352941176471;0.446531234651;3;0;4;176.470588235294;1;0;0;1;0;66.1764705882353;118.828991622631;4;23.7657983245263;0
CSE09;1;4;2;Stress;3;0.92;3;195.652173913043;0.297240937189333;3;0;4;260.869565217391;1;0;0;1;0;97.8260869565217;186.243515508804;4;37.2487031017608;0
CSE09;1;5;1;NoStress;3;0.78;3;230.769230769231;0.251908763818667;3;0;4;307.692307692308;1;0;0;1;0;115.384615384615;118.828991622631;4;23.7657983245263;0
CSE09;1;5;2;Stress;3;0.81;3;222.222222222222;0.260860505676333;3;0;4;296.296296296296;1;0;0;1;0;111.111111111111;186.243515508804;4;37.2487031017608;0
CSE09;2;1;1;NoStress;3;3.95;16;243.037974683544;0.245492828847469;6;6;17;258.227848101266;1;0;0;0;1;121.518987341772;259.790389357442;5;43.2983982262403;0
CSE09;2;1;2;Stress;3;1.72;8;279.069767441861;0.21153163786675;2;6;9;313.953488372093;1;0;0;0;1;139.53488372093;288.737573855467;5;48.1229289759112;0
CSE09;2;2;1;NoStress;3;1.58;8;303.79746835443;0.194732887106375;2;6;9;341.772151898734;1;0;0;0;1;151.898734177215;259.790389357442;5;43.2983982262403;0
CSE09;2;2;2;Stress;3;1.63;8;294.478527607362;0.20091481370225;2;6;9;331.288343558282;1;0;0;0;1;147.239263803681;288.737573855467;5;48.1229289759112;0
CSE09;2;3;1;NoStress;3;3.04;12;236.842105263158;0.251730696702;4;6;12;236.842105263158;1;0;0;0;1;118.421052631579;259.790389357442;5;43.2983982262403;0
CSE09;2;3;2;Stress;3;1.73;8;277.456647398844;0.21280684197975;2;6;9;312.138728323699;1;0;0;0;1;138.728323699422;288.737573855467;5;48.1229289759112;0
CSE09;2;4;1;NoStress;3;1.62;8;296.296296296296;0.1991566656645;2;6;9;333.333333333333;1;0;0;0;1;148.148148148148;259.790389357442;5;43.2983982262403;0
CSE09;2;4;2;Stress;3;1.64;8;292.682926829268;0.201259075435625;2;6;9;329.268292682927;1;0;0;0;1;146.341463414634;288.737573855467;5;48.1229289759112;0
CSE09;2;5;1;NoStress;3;2.74;10;218.978102189781;0.2711320132251;3;6;11;240.875912408759;1;0;0;0;1;109.48905109489;259.790389357442;5;43.2983982262403;0
CSE09;2;5;2;Stress;3;1.6;8;300;0.196729605165375;2;6;9;337.5;1;0;0;0;1;150;288.737573855467;5;48.1229289759112;0
CSE101;1;1;1;NoStress;3;5;0;0;NA;0;0;1;12;0;0;0;0;0;0;79.2;0;79.2;0
CSE101;1;1;2;Stress;3;5;15;180;0.3281505136906;6;7;16;192;0;0;0;0;0;180;345.235431235431;4;69.0470862470862;0
CSE101;1;2;1;NoStress;3;5;21;252;0.229390440758952;7;7;22;264;0;0;0;0;0;252;79.2;0;79.2;0
CSE101;1;2;2;Stress;3;1.43;8;335.664335664336;0.175381174971375;4;4;9;377.622377622378;1;0;0;1;0;167.832167832168;345.235431235431;4;69.0470862470862;0
CSE101;1;3;1;NoStress;3;5;12;144;0.403301227442;2;4;13;156;0;0;0;0;0;144;79.2;0;79.2;0
CSE101;1;3;2;Stress;3;4;26;390;0.152766677546462;4;5;26;390;1;0;0;1;0;195;345.235431235431;4;69.0470862470862;0
CSE101;1;4;1;NoStress;3;5;0;0;NA;0;0;1;12;0;0;0;0;0;0;79.2;0;79.2;0
CSE101;1;4;2;Stress;3;1.17;8;410.25641025641;0.143689010294063;4;4;9;461.538461538462;1;0;0;1;0;205.128205128205;345.235431235431;4;69.0470862470862;0
CSE101;1;5;1;NoStress;3;5;0;0;NA;0;0;1;12;0;0;0;0;0;0;79.2;0;79.2;0
CSE101;1;5;2;Stress;3;1.17;8;410.25641025641;0.143724444562437;4;4;9;461.538461538462;1;0;0;1;0;205.128205128205;345.235431235431;4;69.0470862470862;0
CSE101;2;1;1;NoStress;3;5;0;0;NA;0;0;1;12;0;0;0;0;0;0;0;0;NA;1
CSE101;2;1;2;Stress;3;0.7;4;342.857142857143;0.167796897622;2;2;5;428.571428571429;1;0;0;0;1;171.428571428571;365.023216220399;5;60.8372027033999;0
CSE101;2;2;1;NoStress;3;5;0;0;NA;0;0;1;12;0;0;0;0;0;0;0;0;NA;1
CSE101;2;2;2;Stress;3;0.6;4;400;0.1440622919765;2;2;5;500;1;0;0;0;1;200;365.023216220399;5;60.8372027033999;0
CSE101;2;3;1;NoStress;3;5;0;0;NA;0;0;1;12;0;0;0;0;0;0;0;0;NA;1
CSE101;2;3;2;Stress;3;0.71;4;338.028169014085;0.17121288321495;2;2;5;422.535211267606;1;0;0;0;1;169.014084507042;365.023216220399;5;60.8372027033999;0
CSE101;2;4;1;NoStress;3;5;0;0;NA;0;0;1;12;0;0;0;0;0;0;0;0;NA;1
CSE101;2;4;2;Stress;3;0.65;4;369.230769230769;0.15734647675705;2;2;5;461.538461538461;1;0;0;0;1;184.615384615385;365.023216220399;5;60.8372027033999;0
CSE101;2;5;1;NoStress;3;5;0;0;NA;0;0;1;12;0;0;0;0;0;0;0;0;NA;1
CSE101;2;5;2;Stress;3;0.64;4;375;0.15439822349795;2;2;5;468.75;1;0;0;0;1;187.5;365.023216220399;5;60.8372027033999;0
CSE103;1;1;1;NoStress;4;5;10;120;0.4406409637333;0;7;8;96;0;0;0;0;0;120;189.18093768088;2;63.0603125602933;0
CSE103;1;1;2;Stress;4;5;20;240;0.247995399903375;4;5;16;192;0;0;0;0;0;240;272.899649058717;4;54.5799298117435;0
CSE103;1;2;1;NoStress;4;5;16;192;0.308669987058313;5;6;15;180;0;0;0;0;0;192;189.18093768088;2;63.0603125602933;0
CSE103;1;2;2;Stress;4;3.72;15;241.935483870968;0.2465544892165;5;6;15;241.935483870968;1;0;0;1;0;120.967741935484;272.899649058717;4;54.5799298117435;0
CSE103;1;3;1;NoStress;4;2.13;9;253.521126760563;0.232909729974444;2;7;10;281.69014084507;1;0;0;0;1;126.760563380282;189.18093768088;2;63.0603125602933;0
CSE103;1;3;2;Stress;4;1.98;9;272.727272727273;0.217438139160333;2;7;10;303.030303030303;1;0;0;0;1;136.363636363636;272.899649058717;4;54.5799298117435;0
CSE103;1;4;1;NoStress;4;2.92;8;164.383561643836;0.36161862843675;1;7;9;184.931506849315;1;1;0;0;0;82.1917808219178;189.18093768088;2;63.0603125602933;0
CSE103;1;4;2;Stress;4;1.62;8;296.296296296296;0.19913214231925;1;7;9;333.333333333333;1;1;0;0;0;148.148148148148;272.899649058717;4;54.5799298117435;0
CSE103;1;5;1;NoStress;4;5;18;216;0.264146757786778;7;7;19;228;0;0;0;0;0;216;189.18093768088;2;63.0603125602933;0
CSE103;1;5;2;Stress;4;4.21;22;313.53919239905;0.190155823539864;7;7;23;327.790973871734;1;1;0;0;0;156.769596199525;272.899649058717;4;54.5799298117435;0
CSE103;2;1;1;NoStress;4;5;19;228;0.261988886589895;7;7;15;180;0;0;0;0;0;228;192;0;192;0
CSE103;2;1;2;Stress;4;5;25;300;0.1949951222946;7;7;16;192;0;0;0;0;0;300;237.6;0;237.6;0
CSE103;2;2;1;NoStress;4;5;16;192;0.286667985879813;7;7;17;204;0;0;0;0;0;192;192;0;192;0
CSE103;2;2;2;Stress;4;5;24;288;0.196181733302542;7;7;20;240;0;0;0;0;0;288;237.6;0;237.6;0
CSE103;2;3;1;NoStress;4;5;17;204;0.291112162845471;7;7;18;216;0;0;0;0;0;204;192;0;192;0
CSE103;2;3;2;Stress;4;5;22;264;0.224495971916045;7;7;21;252;0;0;0;0;0;264;237.6;0;237.6;0
CSE103;2;4;1;NoStress;4;5;14;168;0.348799194933929;7;7;15;180;0;0;0;0;0;168;192;0;192;0
CSE103;2;4;2;Stress;4;5;14;168;0.24503809023;7;7;15;180;0;0;0;0;0;168;237.6;0;237.6;0
CSE103;2;5;1;NoStress;4;5;14;168;0.269863523393143;7;7;15;180;0;0;0;0;0;168;192;0;192;0
CSE103;2;5;2;Stress;4;5;14;168;0.219869241745214;7;7;15;180;0;0;0;0;0;168;237.6;0;237.6;0
CSE107;1;1;1;NoStress;5;5;0;0;NA;0;0;1;12;0;0;0;0;0;0;124.8;0;124.8;0
CSE107;1;1;2;Stress;5;5;2;24;2.321239268933;0;2;3;36;0;0;0;0;0;24;103.2;0;103.2;0
CSE107;1;2;1;NoStress;5;5;10;120;0.4754974597327;3;7;11;132;0;0;0;0;0;120;124.8;0;124.8;0
CSE107;1;2;2;Stress;5;5;7;84;0.650122204406286;0;7;8;96;0;0;0;0;0;84;103.2;0;103.2;0
CSE107;1;3;1;NoStress;5;5;12;144;0.406730831107333;7;5;13;156;0;0;0;0;0;144;124.8;0;124.8;0
CSE107;1;3;2;Stress;5;5;0;0;NA;0;0;1;12;0;0;0;0;0;0;103.2;0;103.2;0
CSE107;1;4;1;NoStress;5;5;14;168;0.311238930298714;7;7;15;180;0;0;0;0;0;168;124.8;0;124.8;0
CSE107;1;4;2;Stress;5;5;15;180;0.327522350030013;4;6;14;168;0;0;0;0;0;180;103.2;0;103.2;0
CSE107;1;5;1;NoStress;5;5;16;192;0.297323922493875;7;2;16;192;0;0;0;0;0;192;124.8;0;124.8;0
CSE107;1;5;2;Stress;5;5;19;228;0.259111268710905;1;6;14;168;0;0;0;0;0;228;103.2;0;103.2;0
CSE107;2;1;1;NoStress;5;5;26;312;0.175022750270685;1;7;16;192;0;0;0;0;0;312;190.773904315825;3;47.6934760789562;0
CSE107;2;1;2;Stress;5;5;11;132;0.438091315417718;4;3;10;120;0;0;0;0;0;132;120.857201225741;2;40.2857337419135;0
CSE107;2;2;1;NoStress;5;5;11;132;0.404462134152091;4;7;12;144;0;0;0;0;0;132;190.773904315825;3;47.6934760789562;0
CSE107;2;2;2;Stress;5;5;13;156;0.370965711145785;7;3;13;156;0;0;0;0;0;156;120.857201225741;2;40.2857337419135;0
CSE107;2;3;1;NoStress;5;2.1;8;228.571428571429;0.259473643051087;1;3;7;200;1;0;0;0;1;114.285714285714;190.773904315825;3;47.6934760789562;0
CSE107;2;3;2;Stress;5;2.67;6;134.831460674157;0.4394503379305;1;3;7;157.303370786517;1;0;0;0;1;67.4157303370787;120.857201225741;2;40.2857337419135;0
CSE107;2;4;1;NoStress;5;3.05;6;118.032786885246;0.503795533986833;1;3;7;137.704918032787;1;0;0;0;1;59.016393442623;190.773904315825;3;47.6934760789562;0
CSE107;2;4;2;Stress;5;5;3;36;1.58386301376433;1;2;4;48;0;0;0;0;0;36;120.857201225741;2;40.2857337419135;0
CSE107;2;5;1;NoStress;5;1.47;4;163.265306122449;0.3618142562845;1;3;5;204.081632653061;1;0;0;0;1;81.6326530612245;190.773904315825;3;47.6934760789562;0
CSE107;2;5;2;Stress;5;1.65;4;145.454545454545;0.40732645176075;1;3;5;181.818181818182;1;0;0;0;1;72.7272727272727;120.857201225741;2;40.2857337419135;0
CSE116;1;1;1;NoStress;1;5;11;132;0.452464809696909;1;5;12;144;0;0;0;0;0;132;146.793691350689;4;29.3587382701378;0
CSE116;1;1;2;Stress;1;2.32;4;103.448275862069;0.574628282676975;2;1;4;103.448275862069;1;0;0;1;0;51.7241379310345;186.114018043585;5;31.0190030072642;0
CSE116;1;2;1;NoStress;1;1.99;2;60.3015075376884;0.9531410370435;2;0;3;90.4522613065327;1;0;0;1;0;30.1507537688442;146.793691350689;4;29.3587382701378;0
CSE116;1;2;2;Stress;1;0.91;2;131.868131868132;0.4449000119255;2;0;3;197.802197802198;1;0;0;1;0;65.9340659340659;186.114018043585;5;31.0190030072642;0
CSE116;1;3;1;NoStress;1;0.62;2;193.548387096774;0.2969933686665;2;0;3;290.322580645161;1;0;0;1;0;96.7741935483871;146.793691350689;4;29.3587382701378;0
CSE116;1;3;2;Stress;1;0.65;2;184.615384615385;0.315704843102;2;0;3;276.923076923077;1;0;0;1;0;92.3076923076923;186.114018043585;5;31.0190030072642;0
CSE116;1;4;1;NoStress;1;0.71;2;169.014084507042;0.3425246475635;2;0;3;253.521126760563;1;0;0;1;0;84.5070422535211;146.793691350689;4;29.3587382701378;0
CSE116;1;4;2;Stress;1;0.47;2;255.31914893617;0.22156928199;2;0;3;382.978723404255;1;0;0;1;0;127.659574468085;186.114018043585;5;31.0190030072642;0
CSE116;1;5;1;NoStress;1;0.67;2;179.10447761194;0.323528721768;2;0;3;268.65671641791;1;0;0;1;0;89.5522388059701;146.793691350689;4;29.3587382701378;0
CSE116;1;5;2;Stress;1;0.47;2;255.31914893617;0.224240534417;2;0;3;382.978723404255;1;0;0;1;0;127.659574468085;186.114018043585;5;31.0190030072642;0
CSE116;2;1;1;NoStress;1;5;17;204;0.287274800714412;4;4;16;192;0;0;0;0;0;204;271.2;0;271.2;0
CSE116;2;1;2;Stress;1;5;22;264;0.224247088083577;3;3;23;276;0;0;0;0;0;264;264;0;264;0
CSE116;2;2;1;NoStress;1;5;23;276;0.213220753550826;7;6;24;288;0;0;0;0;0;276;271.2;0;271.2;0
CSE116;2;2;2;Stress;1;5;20;240;0.24890408026411;7;7;21;252;0;0;0;0;0;240;264;0;264;0
CSE116;2;3;1;NoStress;1;5;23;276;0.212248378695304;2;2;22;264;0;0;0;0;0;276;271.2;0;271.2;0
CSE116;2;3;2;Stress;1;5;23;276;0.211508817907322;5;5;24;288;0;0;0;0;0;276;264;0;264;0
CSE116;2;4;1;NoStress;1;5;25;300;0.19849690426992;6;7;26;312;0;0;0;0;0;300;271.2;0;271.2;0
CSE116;2;4;2;Stress;1;5;22;264;0.226221807902136;2;2;22;264;0;0;0;0;0;264;264;0;264;0
CSE116;2;5;1;NoStress;1;5;25;300;0.19495592470148;5;5;26;312;0;0;0;0;0;300;271.2;0;271.2;0
CSE116;2;5;2;Stress;1;5;23;276;0.20968665895497;3;3;24;288;0;0;0;0;0;276;264;0;264;0
CSE12;1;1;1;NoStress;6;5;0;0;NA;0;0;1;12;0;0;0;0;0;0;96;0;96;0
CSE12;1;1;2;Stress;6;5;5;60;0.8876355971024;1;2;6;72;0;0;0;0;0;60;69.6;0;69.6;0
CSE12;1;2;1;NoStress;6;5;8;96;0.60278840669475;3;5;9;108;0;0;0;0;0;96;96;0;96;0
CSE12;1;2;2;Stress;6;5;0;0;NA;0;0;1;12;0;0;0;0;0;0;69.6;0;69.6;0
CSE12;1;3;1;NoStress;6;5;9;108;0.458363506752222;7;2;10;120;0;0;0;0;0;108;96;0;96;0
CSE12;1;3;2;Stress;6;5;3;36;1.65385738879;0;3;4;48;0;0;0;0;0;36;69.6;0;69.6;0
CSE12;1;4;1;NoStress;6;5;8;96;0.597187595763125;7;0;8;96;0;0;0;0;0;96;96;0;96;0
CSE12;1;4;2;Stress;6;5;0;0;NA;0;0;1;12;0;0;0;0;0;0;69.6;0;69.6;0
CSE12;1;5;1;NoStress;6;5;15;180;0.311755422540067;7;7;16;192;0;0;0;0;0;180;96;0;96;0
CSE12;1;5;2;Stress;6;5;21;252;0.233233146917773;6;5;22;264;0;0;0;0;0;252;69.6;0;69.6;0
CSE12;2;1;1;NoStress;6;1.25;4;192;0.305572023659;4;0;5;240;1;0;0;0;1;96;208.342857142857;2;69.4476190476191;0
CSE12;2;1;2;Stress;6;2.76;12;260.869565217391;0.228390524213;5;3;13;282.608695652174;1;0;0;0;1;130.434782608696;229.946462063086;2;76.6488206876954;0
CSE12;2;2;1;NoStress;6;5;3;36;1.23576516557367;3;0;4;48;0;0;0;0;0;36;208.342857142857;2;69.4476190476191;0
CSE12;2;2;2;Stress;6;5;15;180;0.322210693193467;4;5;15;180;0;0;0;0;0;180;229.946462063086;2;76.6488206876954;0
CSE12;2;3;1;NoStress;6;5;24;288;0.205417440721917;7;7;25;300;0;0;0;0;0;288;208.342857142857;2;69.4476190476191;0
CSE12;2;3;2;Stress;6;5;24;288;0.206563249974008;7;7;23;276;0;0;0;0;0;288;229.946462063086;2;76.6488206876954;0
CSE12;2;4;1;NoStress;6;5;20;240;0.24153910743795;7;7;21;252;0;0;0;0;0;240;208.342857142857;2;69.4476190476191;0
CSE12;2;4;2;Stress;6;5;22;264;0.225757540953045;7;7;23;276;0;0;0;0;0;264;229.946462063086;2;76.6488206876954;0
CSE12;2;5;1;NoStress;6;0.84;4;285.714285714286;0.2039973011325;4;0;5;357.142857142857;1;0;0;0;1;142.857142857143;208.342857142857;2;69.4476190476191;0
CSE12;2;5;2;Stress;6;1.53;4;156.862745098039;0.3776637392275;4;0;5;196.078431372549;1;0;0;0;1;78.4313725490196;229.946462063086;2;76.6488206876954;0
CSE120;1;1;1;NoStress;5;4.78;4;50.2092050209205;1.19073165999125;1;3;5;62.7615062761506;1;1;0;0;0;25.1046025104602;80.7483830602589;2;26.916127686753;0
CSE120;1;1;2;Stress;5;5;0;0;NA;0;0;1;12;0;0;0;0;0;0;19.2;0;19.2;0
CSE120;1;2;1;NoStress;5;5;4;48;0.626567413439;0;4;5;60;0;0;0;0;0;48;80.7483830602589;2;26.916127686753;0
CSE120;1;2;2;Stress;5;5;1;12;0.375194399345;0;1;2;24;0;0;0;0;0;12;19.2;0;19.2;0
CSE120;1;3;1;NoStress;5;5;7;84;0.709083066279429;1;5;8;96;0;0;0;0;0;84;80.7483830602589;2;26.916127686753;0
CSE120;1;3;2;Stress;5;5;0;0;NA;0;0;1;12;0;0;0;0;0;0;19.2;0;19.2;0
CSE120;1;4;1;NoStress;5;5;6;72;0.7776807070815;1;5;7;84;0;0;0;0;0;72;80.7483830602589;2;26.916127686753;0
CSE120;1;4;2;Stress;5;5;0;0;NA;0;0;1;12;0;0;0;0;0;0;19.2;0;19.2;0
CSE120;1;5;1;NoStress;5;3.21;8;149.532710280374;0.387053309163225;1;7;9;168.224299065421;1;0;0;0;1;74.7663551401869;80.7483830602589;2;26.916127686753;0
CSE120;1;5;2;Stress;5;5;7;84;0.659333172372286;5;0;6;72;0;0;0;0;0;84;19.2;0;19.2;0
CSE120;2;1;1;NoStress;5;5;13;156;0.368742555528615;6;7;14;168;0;0;0;0;0;156;167.222535211268;1;83.6112676056338;0
CSE120;2;1;2;Stress;5;5;7;84;0.673252703018571;1;6;8;96;0;0;0;0;0;84;103.2;0;103.2;0
CSE120;2;2;1;NoStress;5;5;13;156;0.369067159103538;5;7;14;168;0;0;0;0;0;156;167.222535211268;1;83.6112676056338;0
CSE120;2;2;2;Stress;5;5;9;108;0.521471006354222;2;6;10;120;0;0;0;0;0;108;103.2;0;103.2;0
CSE120;2;3;1;NoStress;5;3.55;9;152.112676056338;0.391535891394333;2;7;10;169.014084507042;1;0;0;0;1;76.056338028169;167.222535211268;1;83.6112676056338;0
CSE120;2;3;2;Stress;5;5;8;96;0.6138632147075;1;7;9;108;0;0;0;0;0;96;103.2;0;103.2;0
CSE120;2;4;1;NoStress;5;5;14;168;0.333770878772643;7;7;15;180;0;0;0;0;0;168;167.222535211268;1;83.6112676056338;0
CSE120;2;4;2;Stress;5;5;8;96;0.3912803035705;1;7;9;108;0;0;0;0;0;96;103.2;0;103.2;0
CSE120;2;5;1;NoStress;5;5;17;204;0.282812225888235;7;6;14;168;0;0;0;0;0;204;167.222535211268;1;83.6112676056338;0
CSE120;2;5;2;Stress;5;5;11;132;0.42467009317173;1;7;11;132;0;0;0;0;0;132;103.2;0;103.2;0
CSE14;1;1;1;NoStress;7;5;3;36;1.588546559233;2;1;4;48;0;0;0;0;0;36;52.0761904761905;1;26.0380952380952;0
CSE14;1;1;2;Stress;7;5;10;120;0.499388479047;3;5;11;132;0;0;0;0;0;120;186.756099720469;2;62.2520332401563;0
CSE14;1;2;1;NoStress;7;5;0;0;NA;0;0;1;12;0;0;0;0;0;0;52.0761904761905;1;26.0380952380952;0
CSE14;1;2;2;Stress;7;5;12;144;0.407822005630667;6;6;13;156;0;0;0;0;0;144;186.756099720469;2;62.2520332401563;0
CSE14;1;3;1;NoStress;7;5;0;0;NA;0;0;1;12;0;0;0;0;0;0;52.0761904761905;1;26.0380952380952;0
CSE14;1;3;2;Stress;7;5;13;156;0.377447375234;5;5;14;168;0;0;0;0;0;156;186.756099720469;2;62.2520332401563;0
CSE14;1;4;1;NoStress;7;5;6;72;0.483030114343833;2;1;5;60;0;0;0;0;0;72;52.0761904761905;1;26.0380952380952;0
CSE14;1;4;2;Stress;7;4.57;18;236.323851203501;0.2527992202195;6;7;19;249.45295404814;1;1;0;0;0;118.161925601751;186.756099720469;2;62.2520332401563;0
CSE14;1;5;1;NoStress;7;3.15;8;152.380952380952;0.39100746024225;1;7;9;171.428571428571;1;1;0;0;0;76.1904761904762;52.0761904761905;1;26.0380952380952;0
CSE14;1;5;2;Stress;7;1.73;8;277.456647398844;0.213410341213625;1;7;9;312.138728323699;1;1;0;0;0;138.728323699422;186.756099720469;2;62.2520332401563;0
CSE14;2;1;1;NoStress;7;5;29;348;0.169867957598448;7;7;29;348;0;0;0;0;0;348;325.510279951411;2;108.50342665047;0
CSE14;2;1;2;Stress;7;5;30;360;0.165283999805733;5;6;31;372;0;0;0;0;0;360;280.643291592129;3;70.1608228980322;0
CSE14;2;2;1;NoStress;7;5;23;276;0.213933585326217;7;4;24;288;0;0;0;0;0;276;325.510279951411;2;108.50342665047;0
CSE14;2;2;2;Stress;7;5;26;312;0.190521451544115;7;7;27;324;0;0;0;0;0;312;280.643291592129;3;70.1608228980322;0
CSE14;2;3;1;NoStress;7;3.64;17;280.21978021978;0.212831854565059;1;7;18;296.703296703297;1;1;0;0;0;140.10989010989;325.510279951411;2;108.50342665047;0
CSE14;2;3;2;Stress;7;1.04;3;173.076923076923;0.338367433253333;1;2;4;230.769230769231;1;1;0;0;0;86.5384615384615;280.643291592129;3;70.1608228980322;0
CSE14;2;4;1;NoStress;7;3.89;22;339.331619537275;0.175829446827636;2;7;23;354.755784061697;1;0;0;1;0;169.665809768638;325.510279951411;2;108.50342665047;0
CSE14;2;4;2;Stress;7;1.29;6;279.069767441861;0.211617268950667;2;4;7;325.581395348837;1;0;0;1;0;139.53488372093;280.643291592129;3;70.1608228980322;0
CSE14;2;5;1;NoStress;7;5;32;384;0.156255528956719;2;7;33;396;0;0;0;0;0;384;325.510279951411;2;108.50342665047;0
CSE14;2;5;2;Stress;7;1.29;6;279.069767441861;0.211247857249;2;4;7;325.581395348837;1;0;0;1;0;139.53488372093;280.643291592129;3;70.1608228980322;0
CSE15;1;1;1;NoStress;4;5;5;60;0.77187365289;3;2;6;72;0;0;0;0;0;60;91.3352112676056;2;30.4450704225352;0
CSE15;1;1;2;Stress;4;5;15;180;0.323515274502187;6;3;16;192;0;0;0;0;0;180;209.350294879437;4;41.8700589758875;0
CSE15;1;2;1;NoStress;4;5;4;48;1.0772362889205;3;0;4;48;0;0;0;0;0;48;91.3352112676056;2;30.4450704225352;0
CSE15;1;2;2;Stress;4;1.38;4;173.913043478261;0.3384372834245;4;0;5;217.391304347826;1;0;1;0;0;86.9565217391305;209.350294879437;4;41.8700589758875;0
CSE15;1;3;1;NoStress;4;5;3;36;1.03307729477733;3;0;4;48;0;0;0;0;0;36;91.3352112676056;2;30.4450704225352;0
CSE15;1;3;2;Stress;4;0.91;4;263.736263736264;0.22110267804225;4;0;5;329.67032967033;1;0;1;0;0;131.868131868132;209.350294879437;4;41.8700589758875;0
CSE15;1;4;1;NoStress;4;2.13;4;112.676056338028;0.52315857023675;4;0;5;140.845070422535;1;0;1;0;0;56.3380281690141;91.3352112676056;2;30.4450704225352;0
CSE15;1;4;2;Stress;4;1.36;4;176.470588235294;0.32140210923925;4;0;5;220.588235294118;1;0;1;0;0;88.2352941176471;209.350294879437;4;41.8700589758875;0
CSE15;1;5;1;NoStress;4;1.2;4;200;0.2952396964685;4;0;5;250;1;0;1;0;0;100;91.3352112676056;2;30.4450704225352;0
CSE15;1;5;2;Stress;4;0.95;4;252.631578947368;0.23026144084725;4;0;5;315.789473684211;1;0;1;0;0;126.315789473684;209.350294879437;4;41.8700589758875;0
CSE15;2;1;1;NoStress;4;5;4;48;0.30803144210775;4;0;5;60;0;0;0;0;0;48;52.8;0;52.8;0
CSE15;2;1;2;Stress;4;5;17;204;0.271784240835235;6;0;12;144;0;0;0;0;0;204;206.4;0;206.4;0
CSE15;2;2;1;NoStress;4;5;5;60;0.2746945083344;5;0;6;72;0;0;0;0;0;60;52.8;0;52.8;0
CSE15;2;2;2;Stress;4;5;19;228;0.259521612854684;7;0;13;156;0;0;0;0;0;228;206.4;0;206.4;0
CSE15;2;3;1;NoStress;4;5;4;48;0.3728927648735;0;4;5;60;0;0;0;0;0;48;52.8;0;52.8;0
CSE15;2;3;2;Stress;4;5;19;228;0.232061845396579;0;7;14;168;0;0;0;0;0;228;206.4;0;206.4;0
CSE15;2;4;1;NoStress;4;5;4;48;0.29254180990925;4;0;5;60;0;0;0;0;0;48;52.8;0;52.8;0
CSE15;2;4;2;Stress;4;5;15;180;0.324869887252533;5;3;10;120;0;0;0;0;0;180;206.4;0;206.4;0
CSE15;2;5;1;NoStress;4;5;5;60;0.2736434078222;0;5;6;72;0;0;0;0;0;60;52.8;0;52.8;0
CSE15;2;5;2;Stress;4;5;16;192;0.311176990888313;0;7;10;120;0;0;0;0;0;192;206.4;0;206.4;0
CSE27;1;1;1;NoStress;7;5;6;72;0.618824715247833;1;1;5;60;0;0;0;0;0;72;157.960014435222;3;39.4900036088055;0
CSE27;1;1;2;Stress;7;5;19;228;0.256255312879;7;4;20;240;0;0;0;0;0;228;282.066160999577;4;56.4132321999154;0
CSE27;1;2;1;NoStress;7;5;12;144;0.4155125300215;5;7;13;156;0;0;0;0;0;144;157.960014435222;3;39.4900036088055;0
CSE27;1;2;2;Stress;7;1.41;6;255.31914893617;0.231949330562833;6;0;7;297.872340425532;1;0;1;0;0;127.659574468085;282.066160999577;4;56.4132321999154;0
CSE27;1;3;1;NoStress;7;1.63;6;220.858895705521;0.267959192185333;6;0;7;257.668711656442;1;0;1;0;0;110.429447852761;157.960014435222;3;39.4900036088055;0
CSE27;1;3;2;Stress;7;1.29;6;279.069767441861;0.211617757697667;6;0;7;325.581395348837;1;0;1;0;0;139.53488372093;282.066160999577;4;56.4132321999154;0
CSE27;1;4;1;NoStress;7;1.36;6;264.705882352941;0.222723079865333;6;0;7;308.823529411765;1;0;1;0;0;132.352941176471;157.960014435222;3;39.4900036088055;0
CSE27;1;4;2;Stress;7;1.18;6;305.084745762712;0.193009671662333;6;0;7;355.932203389831;1;0;1;0;0;152.542372881356;282.066160999577;4;56.4132321999154;0
CSE27;1;5;1;NoStress;7;4.08;6;88.2352941176471;0.676822352317333;6;0;7;102.941176470588;1;0;1;0;0;44.1176470588235;157.960014435222;3;39.4900036088055;0
CSE27;1;5;2;Stress;7;1.05;6;342.857142857143;0.171801122750667;6;0;7;400;1;0;1;0;0;171.428571428571;282.066160999577;4;56.4132321999154;0
CSE27;2;1;1;NoStress;7;5;8;96;0.594497569946625;7;1;9;108;0;0;0;0;0;96;84;0;84;0
CSE27;2;1;2;Stress;7;5;20;240;0.24828933464825;7;2;20;240;0;0;0;0;0;240;144;0;144;0
CSE27;2;2;1;NoStress;7;5;16;192;0.29546045763375;7;7;17;204;0;0;0;0;0;192;84;0;84;0
CSE27;2;2;2;Stress;7;5;20;240;0.24346031320885;7;7;21;252;0;0;0;0;0;240;144;0;144;0
CSE27;2;3;1;NoStress;7;5;0;0;NA;0;0;1;12;0;0;0;0;0;0;84;0;84;0
CSE27;2;3;2;Stress;7;5;0;0;NA;0;0;1;12;0;0;0;0;0;0;144;0;144;0
CSE27;2;4;1;NoStress;7;5;0;0;NA;0;0;1;12;0;0;0;0;0;0;84;0;84;0
CSE27;2;4;2;Stress;7;5;8;96;0.61575912760575;7;1;9;108;0;0;0;0;0;96;144;0;144;0
CSE27;2;5;1;NoStress;7;5;11;132;0.436305173268636;4;7;12;144;0;0;0;0;0;132;84;0;84;0
CSE27;2;5;2;Stress;7;5;12;144;0.39589273652675;5;7;13;156;0;0;0;0;0;144;144;0;144;0
CSE28;1;1;1;NoStress;4;5;2;24;1.2825480696175;1;0;2;24;0;0;0;0;0;24;7.2;0;7.2;0
CSE28;1;1;2;Stress;4;5;0;0;NA;0;0;1;12;0;0;0;0;0;0;183.157894736842;1;91.5789473684211;0
CSE28;1;2;1;NoStress;4;5;0;0;NA;0;0;1;12;0;0;0;0;0;0;7.2;0;7.2;0
CSE28;1;2;2;Stress;4;5;10;120;0.486015347673;3;5;11;132;0;0;0;0;0;120;183.157894736842;1;91.5789473684211;0
CSE28;1;3;1;NoStress;4;5;1;12;0.576200988933;0;1;2;24;0;0;0;0;0;12;7.2;0;7.2;0
CSE28;1;3;2;Stress;4;5;19;228;0.252600828963316;0;7;13;156;0;0;0;0;0;228;183.157894736842;1;91.5789473684211;0
CSE28;1;4;1;NoStress;4;5;0;0;NA;0;0;1;12;0;0;0;0;0;0;7.2;0;7.2;0
CSE28;1;4;2;Stress;4;5;21;252;0.218276285819333;0;7;15;180;0;0;0;0;0;252;183.157894736842;1;91.5789473684211;0
CSE28;1;5;1;NoStress;4;5;0;0;NA;0;0;1;12;0;0;0;0;0;0;7.2;0;7.2;0
CSE28;1;5;2;Stress;4;3.23;17;315.789473684211;0.188358125185706;7;0;11;204.334365325077;1;0;0;0;1;157.894736842105;183.157894736842;1;91.5789473684211;0
CSE28;2;1;1;NoStress;4;5;0;0;NA;0;0;1;12;0;0;0;0;0;0;0;0;NA;1
CSE28;2;1;2;Stress;4;5;27;324;0.183367276901481;7;1;15;180;0;0;0;0;0;324;297.6;0;297.6;0
CSE28;2;2;1;NoStress;4;5;0;0;NA;0;0;1;12;0;0;0;0;0;0;0;0;NA;1
CSE28;2;2;2;Stress;4;5;26;312;0.185411642036808;0;6;13;156;0;0;0;0;0;312;297.6;0;297.6;0
CSE28;2;3;1;NoStress;4;5;0;0;NA;0;0;1;12;0;0;0;0;0;0;0;0;NA;1
CSE28;2;3;2;Stress;4;5;27;324;0.181841911616815;7;3;16;192;0;0;0;0;0;324;297.6;0;297.6;0
CSE28;2;4;1;NoStress;4;5;0;0;NA;0;0;1;12;0;0;0;0;0;0;0;0;NA;1
CSE28;2;4;2;Stress;4;5;22;264;0.225238956810227;3;6;16;192;0;0;0;0;0;264;297.6;0;297.6;0
CSE28;2;5;1;NoStress;4;5;0;0;NA;0;0;1;12;0;0;0;0;0;0;0;0;NA;1
CSE28;2;5;2;Stress;4;5;22;264;0.226496106253609;6;7;23;276;0;0;0;0;0;264;297.6;0;297.6;0
CSE30;1;1;1;NoStress;1;5;1;12;4.09901160435;1;0;2;24;0;0;0;0;0;12;116.494593451223;2;38.8315311504075;0
CSE30;1;1;2;Stress;1;5;6;72;0.6952235770865;1;4;6;72;0;0;0;0;0;72;167.583670959587;2;55.8612236531958;0
CSE30;1;2;1;NoStress;1;5;7;84;0.674948599390857;0;7;8;96;0;0;0;0;0;84;116.494593451223;2;38.8315311504075;0
CSE30;1;2;2;Stress;1;5;9;108;0.512384202633556;2;7;10;120;0;0;0;0;0;108;167.583670959587;2;55.8612236531958;0
CSE30;1;3;1;NoStress;1;4.77;15;188.679245283019;0.316598592177133;6;7;16;201.25786163522;1;0;0;1;0;94.3396226415094;116.494593451223;2;38.8315311504075;0
CSE30;1;3;2;Stress;1;4.01;15;224.438902743142;0.2658630667424;6;7;16;239.401496259352;1;0;0;1;0;112.219451371571;167.583670959587;2;55.8612236531958;0
CSE30;1;4;1;NoStress;1;4.46;15;201.793721973094;0.295581080162733;6;7;16;215.2466367713;1;0;0;1;0;100.896860986547;116.494593451223;2;38.8315311504075;0
CSE30;1;4;2;Stress;1;4.38;15;205.479452054795;0.290384154519733;6;7;16;219.178082191781;1;0;0;1;0;102.739726027397;167.583670959587;2;55.8612236531958;0
CSE30;1;5;1;NoStress;1;5;8;96;0.60812840932475;2;6;9;108;0;0;0;0;0;96;116.494593451223;2;38.8315311504075;0
CSE30;1;5;2;Stress;1;5;19;228;0.260669111316895;6;6;20;240;0;0;0;0;0;228;167.583670959587;2;55.8612236531958;0
CSE30;2;1;1;NoStress;1;5;24;288;0.206836236253667;7;6;24;288;0;0;0;0;0;288;145.589351313648;3;36.397337828412;0
CSE30;2;1;2;Stress;1;1.16;5;258.620689655172;0.227510956515;0;5;6;310.344827586207;1;0;0;0;1;129.310344827586;229.934023179613;5;38.3223371966022;0
CSE30;2;2;1;NoStress;1;2.2;5;136.363636363636;0.4362785141854;0;5;6;163.636363636364;1;0;0;0;1;68.1818181818182;145.589351313648;3;36.397337828412;0
CSE30;2;2;2;Stress;1;1.55;7;270.967741935484;0.217746924883429;0;5;7;270.967741935484;1;0;0;0;1;135.483870967742;229.934023179613;5;38.3223371966022;0
CSE30;2;3;1;NoStress;1;5;3;36;1.65975951303667;0;3;4;48;0;0;0;0;0;36;145.589351313648;3;36.397337828412;0
CSE30;2;3;2;Stress;1;1.23;5;243.90243902439;0.2402283822972;0;5;6;292.682926829268;1;0;0;0;1;121.951219512195;229.934023179613;5;38.3223371966022;0
CSE30;2;4;1;NoStress;1;3.68;11;179.347826086957;0.332044696652455;3;5;12;195.652173913043;1;0;0;0;1;89.6739130434783;145.589351313648;3;36.397337828412;0
CSE30;2;4;2;Stress;1;1.59;5;188.679245283019;0.313825564761;0;5;6;226.415094339623;1;0;0;0;1;94.3396226415094;229.934023179613;5;38.3223371966022;0
CSE30;2;5;1;NoStress;1;3.4;5;88.2352941176471;0.6760521650814;0;5;6;105.882352941176;1;0;0;0;1;44.1176470588235;145.589351313648;3;36.397337828412;0
CSE30;2;5;2;Stress;1;1.6;5;187.5;0.3147182146226;0;5;6;225;1;0;0;0;1;93.75;229.934023179613;5;38.3223371966022;0
CSE32;1;1;1;NoStress;5;5;3;36;1.07101397425767;1;2;4;48;0;0;0;0;0;36;105.6;0;105.6;0
CSE32;1;1;2;Stress;5;5;10;120;0.4630010635138;4;4;11;132;0;0;0;0;0;120;231.549041337626;3;57.8872603344066;0
CSE32;1;2;1;NoStress;5;5;4;48;0.7919842300865;3;1;5;60;0;0;0;0;0;48;105.6;0;105.6;0
CSE32;1;2;2;Stress;5;5;11;132;0.441704602326182;4;7;12;144;0;0;0;0;0;132;231.549041337626;3;57.8872603344066;0
CSE32;1;3;1;NoStress;5;5;11;132;0.424994072830182;6;5;12;144;0;0;0;0;0;132;105.6;0;105.6;0
CSE32;1;3;2;Stress;5;3.17;14;264.984227129338;0.225044538823864;7;7;15;283.91167192429;1;1;0;0;0;132.492113564669;231.549041337626;3;57.8872603344066;0
CSE32;1;4;1;NoStress;5;5;16;192;0.2621832735594;7;7;16;192;0;0;0;0;0;192;105.6;0;105.6;0
CSE32;1;4;2;Stress;5;4.88;24;295.081967213115;0.202322538376479;7;7;25;307.377049180328;1;0;1;0;0;147.540983606557;231.549041337626;3;57.8872603344066;0
CSE32;1;5;1;NoStress;5;5;10;120;0.3291852390561;5;1;7;84;0;0;0;0;0;120;105.6;0;105.6;0
CSE32;1;5;2;Stress;5;2.43;14;345.679012345679;0.172161126509021;7;7;15;370.37037037037;1;1;0;0;0;172.839506172839;231.549041337626;3;57.8872603344066;0
CSE32;2;1;1;NoStress;5;5;2;24;0.865123398864;1;1;3;36;0;0;0;0;0;24;194.4;0;194.4;0
CSE32;2;1;2;Stress;5;5;29;348;0.150802880008059;7;7;30;360;0;0;0;0;0;348;338.611764705882;1;169.305882352941;0
CSE32;2;2;1;NoStress;5;5;22;264;0.218370487886818;7;7;23;276;0;0;0;0;0;264;194.4;0;194.4;0
CSE32;2;2;2;Stress;5;5;27;324;0.181236163026926;7;7;21;252;0;0;0;0;0;324;338.611764705882;1;169.305882352941;0
CSE32;2;3;1;NoStress;5;5;29;348;0.168631092889714;7;7;29;348;0;0;0;0;0;348;194.4;0;194.4;0
CSE32;2;3;2;Stress;5;5;30;360;0.16616964346224;7;7;31;372;0;0;0;0;0;360;338.611764705882;1;169.305882352941;0
CSE32;2;4;1;NoStress;5;5;18;216;0.247847666439;7;7;19;228;0;0;0;0;0;216;194.4;0;194.4;0
CSE32;2;4;2;Stress;5;1.36;9;397.058823529412;0.148020313632378;5;4;10;441.176470588235;1;0;0;0;1;198.529411764706;338.611764705882;1;169.305882352941;0
CSE32;2;5;1;NoStress;5;5;10;120;0.4797221277316;2;1;9;108;0;0;0;0;0;120;194.4;0;194.4;0
CSE32;2;5;2;Stress;5;5;22;264;0.223494245758273;3;3;16;192;0;0;0;0;0;264;338.611764705882;1;169.305882352941;0
CSE51;1;1;1;NoStress;4;5;9;108;0.271074231342111;2;1;7;84;0;0;0;0;0;108;48;0;48;0
CSE51;1;1;2;Stress;4;3.81;15;236.220472440945;0.2526937132792;7;4;16;251.968503937008;1;0;0;1;0;118.110236220472;268.611203194231;5;44.7685338657052;0
CSE51;1;2;1;NoStress;4;5;11;132;0.449690729729855;4;1;10;120;0;0;0;0;0;132;48;0;48;0
CSE51;1;2;2;Stress;4;1.78;11;370.786516853933;0.159863840393482;6;3;12;404.494382022472;1;0;0;1;0;185.393258426966;268.611203194231;5;44.7685338657052;0
CSE51;1;3;1;NoStress;4;5;0;0;NA;0;0;1;12;0;0;0;0;0;0;48;0;48;0
CSE51;1;3;2;Stress;4;1.9;6;189.473684210526;0.312296518296;4;2;7;221.052631578947;1;0;1;0;0;94.7368421052632;268.611203194231;5;44.7685338657052;0
CSE51;1;4;1;NoStress;4;5;0;0;NA;0;0;1;12;0;0;0;0;0;0;48;0;48;0
CSE51;1;4;2;Stress;4;1.2;6;300;0.195548442656167;4;2;7;350;1;0;1;0;0;150;268.611203194231;5;44.7685338657052;0
CSE51;1;5;1;NoStress;4;5;0;0;NA;0;0;1;12;0;0;0;0;0;0;48;0;48;0
CSE51;1;5;2;Stress;4;1.46;6;246.575342465753;0.2385585936075;4;2;7;287.671232876712;1;0;1;0;0;123.287671232877;268.611203194231;5;44.7685338657052;0
CSE51;2;1;1;NoStress;4;0.7;3;257.142857142857;0.225294812242667;3;0;4;342.857142857143;1;0;1;0;0;128.571428571429;247.470839081901;5;41.2451398469836;0
CSE51;2;1;2;Stress;4;0.78;3;230.769230769231;0.252305420009333;3;0;4;307.692307692308;1;0;1;0;0;115.384615384615;292.692414042199;4;58.5384828084398;0
CSE51;2;2;1;NoStress;4;0.8;3;225;0.257919657798667;3;0;4;300;1;0;1;0;0;112.5;247.470839081901;5;41.2451398469836;0
CSE51;2;2;2;Stress;4;0.51;3;352.941176470588;0.163998759234;3;0;4;470.588235294118;1;0;1;0;0;176.470588235294;292.692414042199;4;58.5384828084398;0
CSE51;2;3;1;NoStress;4;0.67;3;268.65671641791;0.214692910430667;3;0;4;358.208955223881;1;0;1;0;0;134.328358208955;247.470839081901;5;41.2451398469836;0
CSE51;2;3;2;Stress;4;0.66;3;272.727272727273;0.213180889858667;3;0;4;363.636363636364;1;0;1;0;0;136.363636363636;292.692414042199;4;58.5384828084398;0
CSE51;2;4;1;NoStress;4;0.7;3;257.142857142857;0.224471273401333;3;0;4;342.857142857143;1;0;1;0;0;128.571428571429;247.470839081901;5;41.2451398469836;0
CSE51;2;4;2;Stress;4;0.41;3;439.024390243902;0.130334022792733;3;0;4;585.365853658537;1;0;1;0;0;219.512195121951;292.692414042199;4;58.5384828084398;0
CSE51;2;5;1;NoStress;4;3.4;13;229.411764705882;0.259605045734692;4;4;11;194.117647058824;1;0;1;0;0;114.705882352941;247.470839081901;5;41.2451398469836;0
CSE51;2;5;2;Stress;4;5;14;168;0.332377693136157;4;2;12;144;0;0;0;0;0;168;292.692414042199;4;58.5384828084398;0
CSE53;1;1;1;NoStress;7;3.97;6;90.6801007556675;0.652807102603333;0;2;5;75.5667506297229;1;0;1;0;0;45.3400503778338;140.377246417128;5;23.3962077361879;0
CSE53;1;1;2;Stress;7;3.43;10;174.927113702624;0.3399183694616;0;4;7;122.448979591837;1;0;1;0;0;87.4635568513119;171.985216196014;5;28.6642026993357;0
CSE53;1;2;1;NoStress;7;1.02;2;117.647058823529;0.4966164039165;0;2;3;176.470588235294;1;0;1;0;0;58.8235294117647;140.377246417128;5;23.3962077361879;0
CSE53;1;2;2;Stress;7;0.79;2;151.898734177215;0.3844631211;0;2;3;227.848101265823;1;0;1;0;0;75.9493670886076;171.985216196014;5;28.6642026993357;0
CSE53;1;3;1;NoStress;7;0.76;2;157.894736842105;0.3702430246015;0;2;3;236.842105263158;1;0;1;0;0;78.9473684210526;140.377246417128;5;23.3962077361879;0
CSE53;1;3;2;Stress;7;0.72;2;166.666666666667;0.346253606954;0;2;3;250;1;0;1;0;0;83.3333333333333;171.985216196014;5;28.6642026993357;0
CSE53;1;4;1;NoStress;7;0.78;2;153.846153846154;0.3540779590705;0;2;3;230.769230769231;1;0;1;0;0;76.9230769230769;140.377246417128;5;23.3962077361879;0
CSE53;1;4;2;Stress;7;0.65;2;184.615384615385;0.31403442148;0;2;3;276.923076923077;1;0;1;0;0;92.3076923076923;171.985216196014;5;28.6642026993357;0
CSE53;1;5;1;NoStress;7;0.66;2;181.818181818182;0.3191249667655;0;2;3;272.727272727273;1;0;1;0;0;90.9090909090909;140.377246417128;5;23.3962077361879;0
CSE53;1;5;2;Stress;7;0.66;2;181.818181818182;0.3188573777355;0;2;3;272.727272727273;1;0;1;0;0;90.9090909090909;171.985216196014;5;28.6642026993357;0
CSE53;2;1;1;NoStress;7;0.88;3;204.545454545455;0.285822554831;0;3;4;272.727272727273;1;0;0;1;0;102.272727272727;165.93549307835;5;27.6559155130584;0
CSE53;2;1;2;Stress;7;0.82;3;219.512195121951;0.266935249482667;0;3;4;292.682926829268;1;0;0;1;0;109.756097560976;224.348741947473;5;37.3914569912456;0
CSE53;2;2;1;NoStress;7;0.98;3;183.673469387755;0.320537934594;0;3;4;244.897959183673;1;0;0;1;0;91.8367346938775;165.93549307835;5;27.6559155130584;0
CSE53;2;2;2;Stress;7;0.84;3;214.285714285714;0.273761417131667;0;3;4;285.714285714286;1;0;0;1;0;107.142857142857;224.348741947473;5;37.3914569912456;0
CSE53;2;3;1;NoStress;7;2.6;3;69.2307692307692;0.858555126761667;0;3;4;92.3076923076923;1;0;0;1;0;34.6153846153846;165.93549307835;5;27.6559155130584;0
CSE53;2;3;2;Stress;7;0.95;3;189.473684210526;0.309799672344;0;3;4;252.631578947368;1;0;0;1;0;94.7368421052632;224.348741947473;5;37.3914569912456;0
CSE53;2;4;1;NoStress;7;1.3;3;138.461538461538;0.426323494528667;0;3;4;184.615384615385;1;0;0;1;0;69.2307692307692;165.93549307835;5;27.6559155130584;0
CSE53;2;4;2;Stress;7;0.77;3;233.766233766234;0.249842297606667;0;3;4;311.688311688312;1;0;0;1;0;116.883116883117;224.348741947473;5;37.3914569912456;0
CSE53;2;5;1;NoStress;7;0.77;3;233.766233766234;0.249027556212667;0;3;4;311.688311688312;1;0;0;1;0;116.883116883117;165.93549307835;5;27.6559155130584;0
CSE53;2;5;2;Stress;7;0.68;3;264.705882352941;0.220168995709;0;3;4;352.941176470588;1;0;0;1;0;132.352941176471;224.348741947473;5;37.3914569912456;0
CSE57;1;1;1;NoStress;5;5;0;0;NA;0;0;1;12;0;0;0;0;0;0;55.2;0;55.2;0
CSE57;1;1;2;Stress;5;5;0;0;NA;0;0;1;12;0;0;0;0;0;0;122.4;0;122.4;0
CSE57;1;2;1;NoStress;5;5;2;24;1.4637197440515;1;0;2;24;0;0;0;0;0;24;55.2;0;55.2;0
CSE57;1;2;2;Stress;5;5;15;180;0.319382346290667;2;7;15;180;0;0;0;0;0;180;122.4;0;122.4;0
CSE57;1;3;1;NoStress;5;5;11;132;0.452995190186182;7;0;9;108;0;0;0;0;0;132;55.2;0;55.2;0
CSE57;1;3;2;Stress;5;5;18;216;0.259841512043167;3;7;19;228;0;0;0;0;0;216;122.4;0;122.4;0
CSE57;1;4;1;NoStress;5;5;10;120;0.4177125223117;1;1;4;48;0;0;0;0;0;120;55.2;0;55.2;0
CSE57;1;4;2;Stress;5;5;18;216;0.271059175658;6;7;18;216;0;0;0;0;0;216;122.4;0;122.4;0
CSE57;1;5;1;NoStress;5;5;0;0;NA;0;0;1;12;0;0;0;0;0;0;55.2;0;55.2;0
CSE57;1;5;2;Stress;5;5;0;0;NA;0;0;1;12;0;0;0;0;0;0;122.4;0;122.4;0
CSE57;2;1;1;NoStress;5;5;0;0;NA;0;0;1;12;0;0;0;0;0;0;94.7758389261745;1;47.3879194630872;0
CSE57;2;1;2;Stress;5;5;16;192;0.304281762758125;7;2;16;192;0;0;0;0;0;192;168.532253984316;2;56.1774179947719;0
CSE57;2;2;1;NoStress;5;5;0;0;NA;0;0;1;12;0;0;0;0;0;0;94.7758389261745;1;47.3879194630872;0
CSE57;2;2;2;Stress;5;5;16;192;0.26467444615075;3;7;17;204;0;0;0;0;0;192;168.532253984316;2;56.1774179947719;0
CSE57;2;3;1;NoStress;5;5;0;0;NA;0;0;1;12;0;0;0;0;0;0;94.7758389261745;1;47.3879194630872;0
CSE57;2;3;2;Stress;5;5;8;96;0.50966774174975;3;1;7;84;0;0;0;0;0;96;168.532253984316;2;56.1774179947719;0
CSE57;2;4;1;NoStress;5;5;16;192;0.301906172350156;2;3;12;144;0;0;0;0;0;192;94.7758389261745;1;47.3879194630872;0
CSE57;2;4;2;Stress;5;3.35;7;125.373134328358;0.474931833613;0;7;8;143.283582089552;1;0;0;1;0;62.6865671641791;168.532253984316;2;56.1774179947719;0
CSE57;2;5;1;NoStress;5;1.49;7;281.879194630872;0.210164451148429;0;7;8;322.147651006711;1;0;0;1;0;140.939597315436;94.7758389261745;1;47.3879194630872;0
CSE57;2;5;2;Stress;5;1.77;7;237.28813559322;0.248348520364429;0;7;8;271.186440677966;1;0;0;1;0;118.64406779661;168.532253984316;2;56.1774179947719;0
CSE59;1;1;1;NoStress;6;5;11;132;0.436964813347636;4;7;12;144;0;0;0;0;0;132;88.8;0;88.8;0
CSE59;1;1;2;Stress;6;5;14;168;0.3123330360585;7;7;15;180;0;0;0;0;0;168;206.347252747253;1;103.173626373626;0
CSE59;1;2;1;NoStress;6;5;12;144;0.3337268971175;5;7;13;156;0;0;0;0;0;144;88.8;0;88.8;0
CSE59;1;2;2;Stress;6;0.91;4;263.736263736264;0.22033218200745;1;3;5;329.67032967033;1;0;0;1;0;131.868131868132;206.347252747253;1;103.173626373626;0
CSE59;1;3;1;NoStress;6;5;4;48;0.98193834256925;2;2;5;60;0;0;0;0;0;48;88.8;0;88.8;0
CSE59;1;3;2;Stress;6;5;15;180;0.3284789971426;2;2;16;192;0;0;0;0;0;180;206.347252747253;1;103.173626373626;0
CSE59;1;4;1;NoStress;6;5;7;84;0.275755919306143;0;7;8;96;0;0;0;0;0;84;88.8;0;88.8;0
CSE59;1;4;2;Stress;6;5;22;264;0.220608346462409;1;7;16;192;0;0;0;0;0;264;206.347252747253;1;103.173626373626;0
CSE59;1;5;1;NoStress;6;5;3;36;1.11377516417333;3;0;4;48;0;0;0;0;0;36;88.8;0;88.8;0
CSE59;1;5;2;Stress;6;5;13;156;0.355259302826;3;3;12;144;0;0;0;0;0;156;206.347252747253;1;103.173626373626;0
CSE59;2;1;1;NoStress;6;5;7;84;0.313704705428857;7;0;8;96;0;0;0;0;0;84;33.6;0;33.6;0
CSE59;2;1;2;Stress;6;5;19;228;0.256818121660105;3;7;20;240;0;0;0;0;0;228;249.6;0;249.6;0
CSE59;2;2;1;NoStress;6;5;0;0;NA;0;0;1;12;0;0;0;0;0;0;33.6;0;33.6;0
CSE59;2;2;2;Stress;6;5;20;240;0.2494739123784;2;3;20;240;0;0;0;0;0;240;249.6;0;249.6;0
CSE59;2;3;1;NoStress;6;5;0;0;NA;0;0;1;12;0;0;0;0;0;0;33.6;0;33.6;0
CSE59;2;3;2;Stress;6;5;22;264;0.221292237266227;2;3;23;276;0;0;0;0;0;264;249.6;0;249.6;0
CSE59;2;4;1;NoStress;6;5;2;24;2.07114572637;2;0;3;36;0;0;0;0;0;24;33.6;0;33.6;0
CSE59;2;4;2;Stress;6;5;22;264;0.223994587878591;4;3;23;276;0;0;0;0;0;264;249.6;0;249.6;0
CSE59;2;5;1;NoStress;6;5;5;60;0.3379047499886;5;0;6;72;0;0;0;0;0;60;33.6;0;33.6;0
CSE59;2;5;2;Stress;6;5;21;252;0.236511836401476;3;3;22;264;0;0;0;0;0;252;249.6;0;249.6;0
CSE60;1;1;1;NoStress;6;5;3;36;1.41965906582367;1;1;3;36;0;0;0;0;0;36;138.984261389784;2;46.3280871299279;0
CSE60;1;1;2;Stress;6;5;22;264;0.226186307552586;6;7;21;252;0;0;0;0;0;264;246.60325203252;2;82.2010840108401;0
CSE60;1;2;1;NoStress;6;5;0;0;NA;0;0;1;12;0;0;0;0;0;0;138.984261389784;2;46.3280871299279;0
CSE60;1;2;2;Stress;6;5;15;180;0.312999795540267;7;7;16;192;0;0;0;0;0;180;246.60325203252;2;82.2010840108401;0
CSE60;1;3;1;NoStress;6;5;11;132;0.436930672679182;1;3;11;132;0;0;0;0;0;132;138.984261389784;2;46.3280871299279;0
CSE60;1;3;2;Stress;6;5;24;288;0.205403086605325;4;6;23;276;0;0;0;0;0;288;246.60325203252;2;82.2010840108401;0
CSE60;1;4;1;NoStress;6;2.46;10;243.90243902439;0.2437129193152;3;7;11;268.292682926829;1;1;0;0;0;121.951219512195;138.984261389784;2;46.3280871299279;0
CSE60;1;4;2;Stress;6;2.88;10;208.333333333333;0.285668643651;3;7;11;229.166666666667;1;1;0;0;0;104.166666666667;246.60325203252;2;82.2010840108401;0
CSE60;1;5;1;NoStress;6;2.12;10;283.018867924528;0.2098610734368;3;7;11;311.320754716981;1;1;0;0;0;141.509433962264;138.984261389784;2;46.3280871299279;0
CSE60;1;5;2;Stress;6;2.05;10;292.682926829268;0.202518370808;3;7;11;321.951219512195;1;1;0;0;0;146.341463414634;246.60325203252;2;82.2010840108401;0
CSE60;2;1;1;NoStress;6;5;8;96;0.61846360906025;1;7;9;108;0;0;0;0;0;96;127.028378105139;3;31.7570945262846;0
CSE60;2;1;2;Stress;6;1.15;6;313.04347826087;0.1883266659985;3;3;7;365.217391304348;1;1;0;0;0;156.521739130435;267.81957240511;4;53.5639144810219;0
CSE60;2;2;1;NoStress;6;5;0;0;NA;0;0;1;12;0;0;0;0;0;0;127.028378105139;3;31.7570945262846;0
CSE60;2;2;2;Stress;6;5;24;288;0.201033538688792;4;7;23;276;0;0;0;0;0;288;267.81957240511;4;53.5639144810219;0
CSE60;2;3;1;NoStress;6;1.77;6;203.389830508475;0.291052412499833;3;3;7;237.28813559322;1;1;0;0;0;101.694915254237;127.028378105139;3;31.7570945262846;0
CSE60;2;3;2;Stress;6;1.6;6;225;0.263357681119833;3;3;7;262.5;1;1;0;0;0;112.5;267.81957240511;4;53.5639144810219;0
CSE60;2;4;1;NoStress;6;1.73;6;208.092485549133;0.284438025556667;3;3;7;242.774566473988;1;1;0;0;0;104.046242774566;127.028378105139;3;31.7570945262846;0
CSE60;2;4;2;Stress;6;1.47;6;244.897959183673;0.240960650099833;3;3;7;285.714285714286;1;1;0;0;0;122.448979591837;267.81957240511;4;53.5639144810219;0
CSE60;2;5;1;NoStress;6;2.82;6;127.659574468085;0.465949103432833;3;3;7;148.936170212766;1;1;0;0;0;63.8297872340426;127.028378105139;3;31.7570945262846;0
CSE60;2;5;2;Stress;6;1.79;8;268.156424581006;0.22091284649175;4;3;8;268.156424581006;1;1;0;0;0;134.078212290503;267.81957240511;4;53.5639144810219;0
CSE62;1;1;1;NoStress;4;5;0;0;NA;0;0;1;12;0;0;0;0;0;0;24;0;24;0
CSE62;1;1;2;Stress;4;5;3;36;1.52596683228813;1;1;4;48;0;0;0;0;0;36;167.2;1;83.6;0
CSE62;1;2;1;NoStress;4;5;1;12;3.79550997387;0;1;2;24;0;0;0;0;0;12;24;0;24;0
CSE62;1;2;2;Stress;4;5;16;192;0.3114318727435;4;4;16;192;0;0;0;0;0;192;167.2;1;83.6;0
CSE62;1;3;1;NoStress;4;5;9;108;0.519637551322333;4;3;10;120;0;0;0;0;0;108;24;0;24;0
CSE62;1;3;2;Stress;4;5;17;204;0.286607005730588;5;5;17;204;0;0;0;0;0;204;167.2;1;83.6;0
CSE62;1;4;1;NoStress;4;5;0;0;NA;0;0;1;12;0;0;0;0;0;0;24;0;24;0
CSE62;1;4;2;Stress;4;5;17;204;0.273795494563941;5;7;18;216;0;0;0;0;0;204;167.2;1;83.6;0
CSE62;1;5;1;NoStress;4;5;0;0;NA;0;0;1;12;0;0;0;0;0;0;24;0;24;0
CSE62;1;5;2;Stress;4;2.4;8;200;0.2965608422295;2;6;9;225;1;0;0;0;1;100;167.2;1;83.6;0
CSE62;2;1;1;NoStress;4;5;0;0;NA;0;0;1;12;0;0;0;0;0;0;0;0;NA;1
CSE62;2;1;2;Stress;4;1.12;4;214.285714285714;0.274055055458;0;4;5;267.857142857143;1;0;0;1;0;107.142857142857;216.266434900525;5;36.0444058167542;0
CSE62;2;2;1;NoStress;4;5;0;0;NA;0;0;1;12;0;0;0;0;0;0;0;0;NA;1
CSE62;2;2;2;Stress;4;3.34;14;251.497005988024;0.236799417021857;0;5;10;179.640718562874;1;0;0;1;0;125.748502994012;216.266434900525;5;36.0444058167542;0
CSE62;2;3;1;NoStress;4;5;0;0;NA;0;0;1;12;0;0;0;0;0;0;0;0;NA;1
CSE62;2;3;2;Stress;4;1.09;4;220.183486238532;0.2654418571235;0;4;5;275.229357798165;1;0;0;1;0;110.091743119266;216.266434900525;5;36.0444058167542;0
CSE62;2;4;1;NoStress;4;5;0;0;NA;0;0;1;12;0;0;0;0;0;0;0;0;NA;1
CSE62;2;4;2;Stress;4;1.09;4;220.183486238532;0.2664963299945;0;4;5;275.229357798165;1;0;0;1;0;110.091743119266;216.266434900525;5;36.0444058167542;0
CSE62;2;5;1;NoStress;4;5;0;0;NA;0;0;1;12;0;0;0;0;0;0;0;0;NA;1
CSE62;2;5;2;Stress;4;1.37;4;175.182481751825;0.33762193029875;0;4;5;218.978102189781;1;0;0;1;0;87.5912408759124;216.266434900525;5;36.0444058167542;0
CSE63;1;1;1;NoStress;5;5;1;12;2.98802326434;0;1;2;24;0;0;0;0;0;12;40.3801869784213;3;10.0950467446053;0
CSE63;1;1;2;Stress;5;5;14;168;0.320886481617857;7;7;15;180;0;0;0;0;0;168;209.688363810103;3;52.4220909525257;0
CSE63;1;2;1;NoStress;5;5;0;0;NA;0;0;1;12;0;0;0;0;0;0;40.3801869784213;3;10.0950467446053;0
CSE63;1;2;2;Stress;5;5;12;144;0.40844908482225;5;7;13;156;0;0;0;0;0;144;209.688363810103;3;52.4220909525257;0
CSE63;1;3;1;NoStress;5;3.11;3;57.8778135048232;1.02683007095067;0;3;4;77.1704180064309;1;0;1;0;0;28.9389067524116;40.3801869784213;3;10.0950467446053;0
CSE63;1;3;2;Stress;5;1.15;3;156.521739130435;0.375407085197;0;3;4;208.695652173913;1;0;1;0;0;78.2608695652174;209.688363810103;3;52.4220909525257;0
CSE63;1;4;1;NoStress;5;2.25;3;80;0.741204923308333;0;3;4;106.666666666667;1;0;1;0;0;40;40.3801869784213;3;10.0950467446053;0
CSE63;1;4;2;Stress;5;0.77;3;233.766233766234;0.249998289387;0;3;4;311.688311688312;1;0;1;0;0;116.883116883117;209.688363810103;3;52.4220909525257;0
CSE63;1;5;1;NoStress;5;3.46;3;52.0231213872832;1.145198634769;0;3;4;69.364161849711;1;0;1;0;0;26.0115606936416;40.3801869784213;3;10.0950467446053;0
CSE63;1;5;2;Stress;5;0.52;3;346.153846153846;0.165455063822067;0;3;4;461.538461538461;1;0;1;0;0;173.076923076923;209.688363810103;3;52.4220909525257;0
CSE63;2;1;1;NoStress;5;5;13;156;0.371823118842692;4;6;14;168;0;0;0;0;0;156;244.402633802948;4;48.8805267605895;0
CSE63;2;1;2;Stress;5;5;26;312;0.191806651841358;7;5;25;300;0;0;0;0;0;312;408.588933358745;4;81.7177866717489;0
CSE63;2;2;1;NoStress;5;0.79;4;303.79746835443;0.19110041299075;4;0;5;379.746835443038;1;0;0;0;1;151.898734177215;244.402633802948;4;48.8805267605895;0
CSE63;2;2;2;Stress;5;0.81;4;296.296296296296;0.1966371789545;4;0;5;370.37037037037;1;0;0;0;1;148.148148148148;408.588933358745;4;81.7177866717489;0
CSE63;2;3;1;NoStress;5;0.94;4;255.31914893617;0.229862417829;4;0;5;319.148936170213;1;0;0;0;1;127.659574468085;244.402633802948;4;48.8805267605895;0
CSE63;2;3;2;Stress;5;0.55;4;436.363636363636;0.13122565430925;4;0;5;545.454545454545;1;0;0;0;1;218.181818181818;408.588933358745;4;81.7177866717489;0
CSE63;2;4;1;NoStress;5;1.16;4;206.896551724138;0.28521382664175;4;0;5;258.620689655172;1;0;0;0;1;103.448275862069;244.402633802948;4;48.8805267605895;0
CSE63;2;4;2;Stress;5;0.53;4;452.830188679245;0.12555582708125;4;0;5;566.037735849057;1;0;0;0;1;226.415094339623;408.588933358745;4;81.7177866717489;0
CSE63;2;5;1;NoStress;5;0.8;4;300;0.19411793455725;4;0;5;375;1;0;0;0;1;150;244.402633802948;4;48.8805267605895;0
CSE63;2;5;2;Stress;5;0.44;4;545.454545454545;0.103409374159965;4;0;5;681.818181818182;1;0;0;0;1;272.727272727273;408.588933358745;4;81.7177866717489;0
CSE64;1;1;1;NoStress;4;5;3;36;1.49040212885567;2;0;3;36;0;0;0;0;0;36;172.8;0;172.8;0
CSE64;1;1;2;Stress;4;5;15;180;0.329181027713333;3;5;16;192;0;0;0;0;0;180;223.636363636364;1;111.818181818182;0
CSE64;1;2;1;NoStress;4;5;12;144;0.406578866339;3;2;12;144;0;0;0;0;0;144;172.8;0;172.8;0
CSE64;1;2;2;Stress;4;5;20;240;0.24792888129468;5;5;14;168;0;0;0;0;0;240;223.636363636364;1;111.818181818182;0
CSE64;1;3;1;NoStress;4;5;18;216;0.251777142188111;6;7;19;228;0;0;0;0;0;216;172.8;0;172.8;0
CSE64;1;3;2;Stress;4;5;18;216;0.260141168898667;7;7;17;204;0;0;0;0;0;216;223.636363636364;1;111.818181818182;0
CSE64;1;4;1;NoStress;4;5;21;252;0.233473776247;7;7;22;264;0;0;0;0;0;252;172.8;0;172.8;0
CSE64;1;4;2;Stress;4;3.85;14;218.181818181818;0.273299841059071;7;2;15;233.766233766234;1;0;1;0;0;109.090909090909;223.636363636364;1;111.818181818182;0
CSE64;1;5;1;NoStress;4;5;18;216;0.271355818567111;7;6;19;228;0;0;0;0;0;216;172.8;0;172.8;0
CSE64;1;5;2;Stress;4;5;22;264;0.223076092205;7;7;23;276;0;0;0;0;0;264;223.636363636364;1;111.818181818182;0
CSE64;2;1;1;NoStress;4;5;22;264;0.223174686014909;5;5;23;276;0;0;0;0;0;264;222.53453752725;2;74.17817917575;0
CSE64;2;1;2;Stress;4;5;23;276;0.19085993560613;6;7;24;288;0;0;0;0;0;276;279.656074766355;1;139.828037383178;0
CSE64;2;2;1;NoStress;4;5;20;240;0.24830841858735;7;7;21;252;0;0;0;0;0;240;222.53453752725;2;74.17817917575;0
CSE64;2;2;2;Stress;4;5;22;264;0.221577168606182;7;7;23;276;0;0;0;0;0;264;279.656074766355;1;139.828037383178;0
CSE64;2;3;1;NoStress;4;1.69;5;177.514792899408;0.3327079965038;5;0;6;213.01775147929;1;0;1;0;0;88.7573964497041;222.53453752725;2;74.17817917575;0
CSE64;2;3;2;Stress;4;5;27;324;0.180766160707407;7;7;28;336;0;0;0;0;0;324;279.656074766355;1;139.828037383178;0
CSE64;2;4;1;NoStress;4;1.14;5;263.157894736842;0.2224551378172;5;0;6;315.789473684211;1;0;1;0;0;131.578947368421;222.53453752725;2;74.17817917575;0
CSE64;2;4;2;Stress;4;4.28;15;210.280373831776;0.2837846106926;7;7;16;224.299065420561;1;1;0;0;0;105.140186915888;279.656074766355;1;139.828037383178;0
CSE64;2;5;1;NoStress;4;5;14;168;0.347839049404214;6;7;15;180;0;0;0;0;0;168;222.53453752725;2;74.17817917575;0
CSE64;2;5;2;Stress;4;5;27;324;0.182548787734741;7;7;28;336;0;0;0;0;0;324;279.656074766355;1;139.828037383178;0
CSE65;1;1;1;NoStress;4;5;0;0;NA;0;0;1;12;0;0;0;0;0;0;0;0;NA;1
CSE65;1;1;2;Stress;4;5;7;84;0.712485375960286;6;0;7;84;0;0;0;0;0;84;105.001247401247;1;52.5006237006237;0
CSE65;1;2;1;NoStress;4;5;0;0;NA;0;0;1;12;0;0;0;0;0;0;0;0;NA;1
CSE65;1;2;2;Stress;4;5;7;84;0.643937694957714;4;0;5;60;0;0;0;0;0;84;105.001247401247;1;52.5006237006237;0
CSE65;1;3;1;NoStress;4;5;0;0;NA;0;0;1;12;0;0;0;0;0;0;0;0;NA;1
CSE65;1;3;2;Stress;4;5;10;120;0.4818236557963;2;2;8;96;0;0;0;0;0;120;105.001247401247;1;52.5006237006237;0
CSE65;1;4;1;NoStress;4;5;0;0;NA;0;0;1;12;0;0;0;0;0;0;0;0;NA;1
CSE65;1;4;2;Stress;4;5;0;0;NA;0;0;1;12;0;0;0;0;0;0;105.001247401247;1;52.5006237006237;0
CSE65;1;5;1;NoStress;4;5;0;0;NA;0;0;1;12;0;0;0;0;0;0;0;0;NA;1
CSE65;1;5;2;Stress;4;4.81;19;237.006237006237;0.252200523752684;4;7;20;249.480249480249;1;0;0;1;0;118.503118503119;105.001247401247;1;52.5006237006237;0
CSE65;2;1;1;NoStress;4;5;0;0;NA;0;0;1;12;0;0;0;0;0;0;7.2;0;7.2;0
CSE65;2;1;2;Stress;4;5;19;228;0.258950108496947;4;4;12;144;0;0;0;0;0;228;213.6;0;213.6;0
CSE65;2;2;1;NoStress;4;5;3;36;0.707354289545333;3;0;4;48;0;0;0;0;0;36;7.2;0;7.2;0
CSE65;2;2;2;Stress;4;5;17;204;0.290966314679941;6;5;18;216;0;0;0;0;0;204;213.6;0;213.6;0
CSE65;2;3;1;NoStress;4;5;0;0;NA;0;0;1;12;0;0;0;0;0;0;7.2;0;7.2;0
CSE65;2;3;2;Stress;4;5;17;204;0.287988689105235;5;7;18;216;0;0;0;0;0;204;213.6;0;213.6;0
CSE65;2;4;1;NoStress;4;5;0;0;NA;0;0;1;12;0;0;0;0;0;0;7.2;0;7.2;0
CSE65;2;4;2;Stress;4;5;21;252;0.235472569551381;7;4;17;204;0;0;0;0;0;252;213.6;0;213.6;0
CSE65;2;5;1;NoStress;4;5;0;0;NA;0;0;1;12;0;0;0;0;0;0;7.2;0;7.2;0
CSE65;2;5;2;Stress;4;5;15;180;0.3318386766528;3;7;13;156;0;0;0;0;0;180;213.6;0;213.6;0
CSE67;1;1;1;NoStress;7;5;0;0;NA;0;0;1;12;0;0;0;0;0;0;97.0227731736193;3;24.2556932934048;0
CSE67;1;1;2;Stress;7;5;13;156;0.36652734367;3;4;13;156;0;0;0;0;0;156;208.266477514541;3;52.0666193786353;0
CSE67;1;2;1;NoStress;7;5;0;0;NA;0;0;1;12;0;0;0;0;0;0;97.0227731736193;3;24.2556932934048;0
CSE67;1;2;2;Stress;7;5;16;192;0.3106633495402;4;4;16;192;0;0;0;0;0;192;208.266477514541;3;52.0666193786353;0
CSE67;1;3;1;NoStress;7;1.73;4;138.728323699422;0.4276111801875;0;4;5;173.410404624277;1;1;0;0;0;69.364161849711;97.0227731736193;3;24.2556932934048;0
CSE67;1;3;2;Stress;7;1.12;4;214.285714285714;0.27524366486;0;4;5;267.857142857143;1;1;0;0;0;107.142857142857;208.266477514541;3;52.0666193786353;0
CSE67;1;4;1;NoStress;7;0.96;4;250;0.23529848762125;0;4;5;312.5;1;1;0;0;0;125;97.0227731736193;3;24.2556932934048;0
CSE67;1;4;2;Stress;7;1.06;4;226.415094339623;0.26068107884075;0;4;5;283.018867924528;1;1;0;0;0;113.207547169811;208.266477514541;3;52.0666193786353;0
CSE67;1;5;1;NoStress;7;2.49;4;96.3855421686747;0.61740792493725;0;4;5;120.481927710843;1;1;0;0;0;48.1927710843373;97.0227731736193;3;24.2556932934048;0
CSE67;1;5;2;Stress;7;0.95;4;252.631578947368;0.23246021109975;0;4;5;315.789473684211;1;1;0;0;0;126.315789473684;208.266477514541;3;52.0666193786353;0
CSE67;2;1;1;NoStress;7;5;15;180;0.328192854386933;0;6;10;120;0;0;0;0;0;180;225.6;0;225.6;0
CSE67;2;1;2;Stress;7;5;25;300;0.198431688797168;1;6;14;168;0;0;0;0;0;300;259.2;0;259.2;0
CSE67;2;2;1;NoStress;7;5;17;204;0.289291355823529;6;0;12;144;0;0;0;0;0;204;225.6;0;225.6;0
CSE67;2;2;2;Stress;7;5;24;288;0.204463515355792;6;0;13;156;0;0;0;0;0;288;259.2;0;259.2;0
CSE67;2;3;1;NoStress;7;5;15;180;0.315308992425267;5;6;16;192;0;0;0;0;0;180;225.6;0;225.6;0
CSE67;2;3;2;Stress;7;5;27;324;0.182478558122196;7;7;28;336;0;0;0;0;0;324;259.2;0;259.2;0
CSE67;2;4;1;NoStress;7;5;25;300;0.19698448912232;7;7;19;228;0;0;0;0;0;300;225.6;0;225.6;0
CSE67;2;4;2;Stress;7;5;19;228;0.259975250876421;7;7;20;240;0;0;0;0;0;228;259.2;0;259.2;0
CSE67;2;5;1;NoStress;7;5;22;264;0.226008183048045;7;7;23;276;0;0;0;0;0;264;225.6;0;225.6;0
CSE67;2;5;2;Stress;7;5;13;156;0.373728167291869;2;3;13;156;0;0;0;0;0;156;259.2;0;259.2;0
CSE68;1;1;1;NoStress;5;5;2;24;2.1330017179485;0;1;2;24;0;0;0;0;0;24;14.4;0;14.4;0
CSE68;1;1;2;Stress;5;5;0;0;NA;0;0;1;12;0;0;0;0;0;0;4.8;0;4.8;0
CSE68;1;2;1;NoStress;5;5;1;12;2.45250959778;1;0;2;24;0;0;0;0;0;12;14.4;0;14.4;0
CSE68;1;2;2;Stress;5;5;0;0;NA;0;0;1;12;0;0;0;0;0;0;4.8;0;4.8;0
CSE68;1;3;1;NoStress;5;5;0;0;NA;0;0;1;12;0;0;0;0;0;0;14.4;0;14.4;0
CSE68;1;3;2;Stress;5;5;2;24;2.145077698683;0;2;3;36;0;0;0;0;0;24;4.8;0;4.8;0
CSE68;1;4;1;NoStress;5;5;3;36;0.751868767956667;0;3;4;48;0;0;0;0;0;36;14.4;0;14.4;0
CSE68;1;4;2;Stress;5;5;0;0;NA;0;0;1;12;0;0;0;0;0;0;4.8;0;4.8;0
CSE68;1;5;1;NoStress;5;5;0;0;NA;0;0;1;12;0;0;0;0;0;0;14.4;0;14.4;0
CSE68;1;5;2;Stress;5;5;0;0;NA;0;0;1;12;0;0;0;0;0;0;4.8;0;4.8;0
CSE68;2;1;1;NoStress;5;5;0;0;NA;0;0;1;12;0;0;0;0;0;0;9.6;0;9.6;0
CSE68;2;1;2;Stress;5;5;0;0;NA;0;0;1;12;0;0;0;0;0;0;0;0;NA;1
CSE68;2;2;1;NoStress;5;5;0;0;NA;0;0;1;12;0;0;0;0;0;0;9.6;0;9.6;0
CSE68;2;2;2;Stress;5;5;0;0;NA;0;0;1;12;0;0;0;0;0;0;0;0;NA;1
CSE68;2;3;1;NoStress;5;5;0;0;NA;0;0;1;12;0;0;0;0;0;0;9.6;0;9.6;0
CSE68;2;3;2;Stress;5;5;0;0;NA;0;0;1;12;0;0;0;0;0;0;0;0;NA;1
CSE68;2;4;1;NoStress;5;5;4;48;0.66481968871675;4;0;5;60;0;0;0;0;0;48;9.6;0;9.6;0
CSE68;2;4;2;Stress;5;5;0;0;NA;0;0;1;12;0;0;0;0;0;0;0;0;NA;1
CSE68;2;5;1;NoStress;5;5;0;0;NA;0;0;1;12;0;0;0;0;0;0;9.6;0;9.6;0
CSE68;2;5;2;Stress;5;5;0;0;NA;0;0;1;12;0;0;0;0;0;0;0;0;NA;1
CSE70;1;1;1;NoStress;3;5;2;24;1.311659719925;1;1;3;36;0;0;0;0;0;24;56.1117318435754;1;28.0558659217877;0
CSE70;1;1;2;Stress;3;5;9;108;0.509271224535222;1;2;9;108;0;0;0;0;0;108;126.092257890477;2;42.0307526301592;0
CSE70;1;2;1;NoStress;3;5;2;24;2.332747976095;1;1;3;36;0;0;0;0;0;24;56.1117318435754;1;28.0558659217877;0
CSE70;1;2;2;Stress;3;5;7;84;0.680444869640286;1;3;5;60;0;0;0;0;0;84;126.092257890477;2;42.0307526301592;0
CSE70;1;3;1;NoStress;3;5;4;48;1.1189328039885;1;3;5;60;0;0;0;0;0;48;56.1117318435754;1;28.0558659217877;0
CSE70;1;3;2;Stress;3;3.37;6;106.824925816024;0.557153381517333;1;5;7;124.629080118694;1;0;0;1;0;53.4124629080119;126.092257890477;2;42.0307526301592;0
CSE70;1;4;1;NoStress;3;3.58;6;100.558659217877;0.592964765175667;1;5;7;117.31843575419;1;0;0;1;0;50.2793296089385;56.1117318435754;1;28.0558659217877;0
CSE70;1;4;2;Stress;3;2.2;6;163.636363636364;0.363167165515667;1;5;7;190.909090909091;1;0;0;1;0;81.8181818181818;126.092257890477;2;42.0307526301592;0
CSE70;1;5;1;NoStress;3;5;7;84;0.608334564512429;0;7;8;96;0;0;0;0;0;84;56.1117318435754;1;28.0558659217877;0
CSE70;1;5;2;Stress;3;5;14;168;0.3004844261135;0;7;8;96;0;0;0;0;0;168;126.092257890477;2;42.0307526301592;0
CSE70;2;1;1;NoStress;3;5;10;120;0.3592476505882;4;6;11;132;0;0;0;0;0;120;117.6;0;117.6;0
CSE70;2;1;2;Stress;3;5;13;156;0.376257153955508;1;6;11;132;0;0;0;0;0;156;158.4;0;158.4;0
CSE70;2;2;1;NoStress;3;5;10;120;0.4785479686655;4;4;10;120;0;0;0;0;0;120;117.6;0;117.6;0
CSE70;2;2;2;Stress;3;5;10;120;0.4433105055414;4;5;11;132;0;0;0;0;0;120;158.4;0;158.4;0
CSE70;2;3;1;NoStress;3;5;7;84;0.653575596893429;7;0;8;96;0;0;0;0;0;84;117.6;0;117.6;0
CSE70;2;3;2;Stress;3;5;16;192;0.299100392024869;7;3;15;180;0;0;0;0;0;192;158.4;0;158.4;0
CSE70;2;4;1;NoStress;3;5;11;132;0.445907366072818;3;7;12;144;0;0;0;0;0;132;117.6;0;117.6;0
CSE70;2;4;2;Stress;3;5;16;192;0.279395720473249;7;7;17;204;0;0;0;0;0;192;158.4;0;158.4;0
CSE70;2;5;1;NoStress;3;5;11;132;0.405013150877;4;7;12;144;0;0;0;0;0;132;117.6;0;117.6;0
CSE70;2;5;2;Stress;3;5;11;132;0.434819494683909;4;7;12;144;0;0;0;0;0;132;158.4;0;158.4;0
CSE72;1;1;1;NoStress;6;5;12;144;0.409443995882583;1;6;13;156;0;0;0;0;0;144;215.86300233342;3;53.9657505833549;0
CSE72;1;1;2;Stress;6;5;12;144;0.382745182659583;5;7;13;156;0;0;0;0;0;144;199.030348801777;4;39.8060697603555;0
CSE72;1;2;1;NoStress;6;5;15;180;0.3265221146868;7;0;9;108;0;0;0;0;0;180;215.86300233342;3;53.9657505833549;0
CSE72;1;2;2;Stress;6;1.96;10;306.122448979592;0.19368430621807;7;3;11;336.734693877551;1;0;1;0;0;153.061224489796;199.030348801777;4;39.8060697603555;0
CSE72;1;3;1;NoStress;6;3.8;15;236.842105263158;0.251660878266267;2;7;16;252.631578947368;1;1;0;0;0;118.421052631579;215.86300233342;3;53.9657505833549;0
CSE72;1;3;2;Stress;6;1.85;5;162.162162162162;0.3659670408192;2;1;6;194.594594594595;1;1;0;0;0;81.0810810810811;199.030348801777;4;39.8060697603555;0
CSE72;1;4;1;NoStress;6;2.31;11;285.714285714286;0.207899751298545;2;5;12;311.688311688312;1;1;0;0;0;142.857142857143;215.86300233342;3;53.9657505833549;0
CSE72;1;4;2;Stress;6;1.43;5;209.79020979021;0.28159357121;3;1;6;251.748251748252;1;1;0;0;0;104.895104895105;199.030348801777;4;39.8060697603555;0
CSE72;1;5;1;NoStress;6;2.32;9;232.758620689655;0.254996004760111;2;2;10;258.620689655172;1;1;0;0;0;116.379310344828;215.86300233342;3;53.9657505833549;0
CSE72;1;5;2;Stress;6;1.04;3;173.076923076923;0.338956211151;2;1;4;230.769230769231;1;1;0;0;0;86.5384615384615;199.030348801777;4;39.8060697603555;0
CSE72;2;1;1;NoStress;6;5;15;180;0.333000235576067;3;4;14;168;0;0;0;0;0;180;272.574843889385;3;68.1437109723461;0
CSE72;2;1;2;Stress;6;5;23;276;0.213281978572565;5;5;19;228;0;0;0;0;0;276;322.648961928548;4;64.5297923857097;0
CSE72;2;2;1;NoStress;6;5;26;312;0.1856603306685;4;6;27;324;0;0;0;0;0;312;272.574843889385;3;68.1437109723461;0
CSE72;2;2;2;Stress;6;0.98;6;367.34693877551;0.159369258234167;0;6;7;428.571428571429;1;0;0;1;0;183.673469387755;322.648961928548;4;64.5297923857097;0
CSE72;2;3;1;NoStress;6;1.44;6;250;0.235482486708333;0;6;7;291.666666666667;1;0;0;1;0;125;272.574843889385;3;68.1437109723461;0
CSE72;2;3;2;Stress;6;1.2;6;300;0.195678722114;0;6;7;350;1;0;0;1;0;150;322.648961928548;4;64.5297923857097;0
CSE72;2;4;1;NoStress;6;1.18;6;305.084745762712;0.192147358042667;0;6;7;355.932203389831;1;0;0;1;0;152.542372881356;272.574843889385;3;68.1437109723461;0
CSE72;2;4;2;Stress;6;1.06;6;339.622641509434;0.173264188586167;0;6;7;396.22641509434;1;0;0;1;0;169.811320754717;322.648961928548;4;64.5297923857097;0
CSE72;2;5;1;NoStress;6;1.14;6;315.789473684211;0.1865880988665;0;6;7;368.421052631579;1;0;0;1;0;157.894736842105;272.574843889385;3;68.1437109723461;0
CSE72;2;5;2;Stress;6;1.09;6;330.275229357798;0.178595284107333;0;6;7;385.321100917431;1;0;0;1;0;165.137614678899;322.648961928548;4;64.5297923857097;0
CSE74;1;1;1;NoStress;1;5;11;132;0.445352201714727;7;0;8;96;0;0;0;0;0;132;172.8;0;172.8;0
CSE74;1;1;2;Stress;1;5;24;288;0.204452799855537;7;7;20;240;0;0;0;0;0;288;252;0;252;0
CSE74;1;2;1;NoStress;1;5;25;300;0.196577398553096;7;7;26;312;0;0;0;0;0;300;172.8;0;172.8;0
CSE74;1;2;2;Stress;1;5;25;300;0.199528769148;7;7;22;264;0;0;0;0;0;300;252;0;252;0
CSE74;1;3;1;NoStress;1;5;1;12;4.82933326035;1;0;2;24;0;0;0;0;0;12;172.8;0;172.8;0
CSE74;1;3;2;Stress;1;5;4;48;0.6669341745005;2;0;3;36;0;0;0;0;0;48;252;0;252;0
CSE74;1;4;1;NoStress;1;5;4;48;1.1360690326605;4;0;5;60;0;0;0;0;0;48;172.8;0;172.8;0
CSE74;1;4;2;Stress;1;5;17;204;0.288192934078606;7;7;18;216;0;0;0;0;0;204;252;0;252;0
CSE74;1;5;1;NoStress;1;5;31;372;0.160214131974968;7;7;32;384;0;0;0;0;0;372;172.8;0;172.8;0
CSE74;1;5;2;Stress;1;5;35;420;0.142437392484263;7;7;36;432;0;0;0;0;0;420;252;0;252;0
CSE74;2;1;1;NoStress;1;5;23;276;0.216934707872739;7;7;24;288;0;0;0;0;0;276;309.962152663056;4;61.9924305326112;0
CSE74;2;1;2;Stress;1;3.98;23;346.733668341709;0.172127308625726;7;7;24;361.809045226131;1;0;1;0;0;173.366834170854;361.057685787219;5;60.1762809645365;0
CSE74;2;2;1;NoStress;1;2.41;9;224.066390041494;0.265329757438778;2;7;10;248.96265560166;1;0;1;0;0;112.033195020747;309.962152663056;4;61.9924305326112;0
CSE74;2;2;2;Stress;1;1.84;9;293.478260869565;0.202434571092;2;7;10;326.086956521739;1;0;1;0;0;146.739130434783;361.057685787219;5;60.1762809645365;0
CSE74;2;3;1;NoStress;1;1.53;9;352.941176470588;0.167771507689556;2;7;10;392.156862745098;1;0;1;0;0;176.470588235294;309.962152663056;4;61.9924305326112;0
CSE74;2;3;2;Stress;1;1.58;9;341.772151898734;0.173239398223556;2;7;10;379.746835443038;1;0;1;0;0;170.886075949367;361.057685787219;5;60.1762809645365;0
CSE74;2;4;1;NoStress;1;1.56;9;346.153846153846;0.170825256779889;2;7;10;384.615384615385;1;0;1;0;0;173.076923076923;309.962152663056;4;61.9924305326112;0
CSE74;2;4;2;Stress;1;1.25;9;432;0.136677224700211;2;7;10;480;1;0;1;0;0;216;361.057685787219;5;60.1762809645365;0
CSE74;2;5;1;NoStress;1;1.54;9;350.649350649351;0.168647669157556;2;7;10;389.61038961039;1;0;1;0;0;175.324675324675;309.962152663056;4;61.9924305326112;0
CSE74;2;5;2;Stress;1;1.38;9;391.304347826087;0.151202585105333;2;7;10;434.782608695652;1;0;1;0;0;195.652173913043;361.057685787219;5;60.1762809645365;0
CSE78;1;1;1;NoStress;5;5;0;0;NA;0;0;1;12;0;0;0;0;0;0;33.6;0;33.6;0
CSE78;1;1;2;Stress;5;5;4;48;1.20643799342125;0;4;5;60;0;0;0;0;0;48;155.814860577726;2;51.9382868592419;0
CSE78;1;2;1;NoStress;5;5;6;72;0.614372057235833;1;3;7;84;0;0;0;0;0;72;33.6;0;33.6;0
CSE78;1;2;2;Stress;5;5;12;144;0.41501364336825;7;2;13;156;0;0;0;0;0;144;155.814860577726;2;51.9382868592419;0
CSE78;1;3;1;NoStress;5;5;8;96;0.600119242011875;0;7;8;96;0;0;0;0;0;96;33.6;0;33.6;0
CSE78;1;3;2;Stress;5;5;16;192;0.299038201186875;7;7;17;204;0;0;0;0;0;192;155.814860577726;2;51.9382868592419;0
CSE78;1;4;1;NoStress;5;5;0;0;NA;0;0;1;12;0;0;0;0;0;0;33.6;0;33.6;0
CSE78;1;4;2;Stress;5;4.52;11;146.017699115044;0.409099284434636;7;4;12;159.29203539823;1;1;0;0;0;73.0088495575221;155.814860577726;2;51.9382868592419;0
CSE78;1;5;1;NoStress;5;5;0;0;NA;0;0;1;12;0;0;0;0;0;0;33.6;0;33.6;0
CSE78;1;5;2;Stress;5;2.65;11;249.056603773585;0.238204461378818;7;4;12;271.698113207547;1;1;0;0;0;124.528301886792;155.814860577726;2;51.9382868592419;0
CSE78;2;1;1;NoStress;5;5;2;24;2.4615493079605;2;0;3;36;0;0;0;0;0;24;43.2;0;43.2;0
CSE78;2;1;2;Stress;5;5;22;264;0.222000659452727;7;7;16;192;0;0;0;0;0;264;267.685241807346;3;66.9213104518366;0
CSE78;2;2;1;NoStress;5;5;5;60;0.9418261243974;1;1;4;48;0;0;0;0;0;60;43.2;0;43.2;0
CSE78;2;2;2;Stress;5;5;22;264;0.220721342361773;7;7;23;276;0;0;0;0;0;264;267.685241807346;3;66.9213104518366;0
CSE78;2;3;1;NoStress;5;5;8;96;0.510045947090875;0;4;7;84;0;0;0;0;0;96;43.2;0;43.2;0
CSE78;2;3;2;Stress;5;4.83;22;273.291925465839;0.218586229539727;7;7;23;285.714285714286;1;0;0;1;0;136.645962732919;267.685241807346;3;66.9213104518366;0
CSE78;2;4;1;NoStress;5;5;2;24;0.436113455738;0;2;3;36;0;0;0;0;0;24;43.2;0;43.2;0
CSE78;2;4;2;Stress;5;1.72;8;279.069767441861;0.21149102489725;1;7;9;313.953488372093;1;0;0;1;0;139.53488372093;267.685241807346;3;66.9213104518366;0
CSE78;2;5;1;NoStress;5;5;1;12;0.410591828446;0;1;2;24;0;0;0;0;0;12;43.2;0;43.2;0
CSE78;2;5;2;Stress;5;1.86;8;258.064516129032;0.228657097166375;1;7;9;290.322580645161;1;0;0;1;0;129.032258064516;267.685241807346;3;66.9213104518366;0
CSE80;1;1;1;NoStress;7;5;3;36;1.49481822952433;1;0;3;36;0;0;0;0;0;36;38.4;0;38.4;0
CSE80;1;1;2;Stress;7;5;0;0;NA;0;0;1;12;0;0;0;0;0;0;79.2;0;79.2;0
CSE80;1;2;1;NoStress;7;5;0;0;NA;0;0;1;12;0;0;0;0;0;0;38.4;0;38.4;0
CSE80;1;2;2;Stress;7;5;0;0;NA;0;0;1;12;0;0;0;0;0;0;79.2;0;79.2;0
CSE80;1;3;1;NoStress;7;5;3;36;1.420020810819;2;1;4;48;0;0;0;0;0;36;38.4;0;38.4;0
CSE80;1;3;2;Stress;7;5;10;120;0.4475576122003;3;7;11;132;0;0;0;0;0;120;79.2;0;79.2;0
CSE80;1;4;1;NoStress;7;5;0;0;NA;0;0;1;12;0;0;0;0;0;0;38.4;0;38.4;0
CSE80;1;4;2;Stress;7;5;14;168;0.344742907888643;7;7;15;180;0;0;0;0;0;168;79.2;0;79.2;0
CSE80;1;5;1;NoStress;7;5;10;120;0.45782949691864;1;2;5;60;0;0;0;0;0;120;38.4;0;38.4;0
CSE80;1;5;2;Stress;7;5;9;108;0.530171318092778;7;0;9;108;0;0;0;0;0;108;79.2;0;79.2;0
CSE80;2;1;1;NoStress;7;5;6;72;0.764622028808833;1;1;4;48;0;0;0;0;0;72;55.2;0;55.2;0
CSE80;2;1;2;Stress;7;5;11;132;0.446710139323545;5;0;8;96;0;0;0;0;0;132;190.162962962963;2;63.3876543209877;0
CSE80;2;2;1;NoStress;7;5;2;24;1.06064169466;0;1;2;24;0;0;0;0;0;24;55.2;0;55.2;0
CSE80;2;2;2;Stress;7;5;8;96;0.324005853226625;7;1;9;108;0;0;0;0;0;96;190.162962962963;2;63.3876543209877;0
CSE80;2;3;1;NoStress;7;5;0;0;NA;0;0;1;12;0;0;0;0;0;0;55.2;0;55.2;0
CSE80;2;3;2;Stress;7;3;9;180;0.330946404670722;5;2;9;180;1;0;0;0;1;90;190.162962962963;2;63.3876543209877;0
CSE80;2;4;1;NoStress;7;5;6;72;0.817657526621667;2;2;5;60;0;0;0;0;0;72;55.2;0;55.2;0
CSE80;2;4;2;Stress;7;3.24;17;314.814814814815;0.189070785913135;5;5;15;277.777777777778;1;0;0;0;1;157.407407407407;190.162962962963;2;63.3876543209877;0
CSE80;2;5;1;NoStress;7;5;9;108;0.554980409687489;5;4;10;120;0;0;0;0;0;108;55.2;0;55.2;0
CSE80;2;5;2;Stress;7;5;19;228;0.255443702090168;6;4;14;168;0;0;0;0;0;228;190.162962962963;2;63.3876543209877;0
CSE81;1;1;1;NoStress;3;5;5;60;0.9900125705504;2;1;5;60;0;0;0;0;0;60;164.351592356688;2;54.783864118896;0
CSE81;1;1;2;Stress;3;5;12;144;0.415600385523333;1;6;10;120;0;0;0;0;0;144;201.330727675605;4;40.2661455351211;0
CSE81;1;2;1;NoStress;3;3.14;7;133.757961783439;0.444931646759571;1;6;8;152.866242038217;1;0;0;1;0;66.8789808917197;164.351592356688;2;54.783864118896;0
CSE81;1;2;2;Stress;3;4.31;13;180.974477958237;0.32978299371;3;6;14;194.895591647332;1;0;0;1;0;90.4872389791183;201.330727675605;4;40.2661455351211;0
CSE81;1;3;1;NoStress;3;1.5;7;280;0.210527326354571;1;6;8;320;1;0;0;1;0;140;164.351592356688;2;54.783864118896;0
CSE81;1;3;2;Stress;3;2.3;9;234.782608695652;0.253086649041556;1;7;10;260.869565217391;1;0;0;1;0;117.391304347826;201.330727675605;4;40.2661455351211;0
CSE81;1;4;1;NoStress;3;5;23;276;0.215332939389813;7;6;24;288;0;0;0;0;0;276;164.351592356688;2;54.783864118896;0
CSE81;1;4;2;Stress;3;2.03;7;206.896551724138;0.286870589240857;1;6;8;236.453201970443;1;0;0;1;0;103.448275862069;201.330727675605;4;40.2661455351211;0
CSE81;1;5;1;NoStress;3;5;6;72;0.809454582125333;0;6;7;84;0;0;0;0;0;72;164.351592356688;2;54.783864118896;0
CSE81;1;5;2;Stress;3;1.75;7;240;0.244113471770571;1;6;8;274.285714285714;1;0;0;1;0;120;201.330727675605;4;40.2661455351211;0
CSE81;2;1;1;NoStress;3;5;12;144;0.40270881026825;3;6;13;156;0;0;0;0;0;144;168.874692717473;3;42.2186731793682;0
CSE81;2;1;2;Stress;3;4.08;17;250;0.238539851957235;5;6;17;250;1;0;0;1;0;125;215.326764991174;4;43.0653529982349;0
CSE81;2;2;1;NoStress;3;2.02;9;267.326732673267;0.221321191575889;5;4;10;297.029702970297;1;0;0;1;0;133.663366336634;168.874692717473;3;42.2186731793682;0
CSE81;2;2;2;Stress;3;2.14;9;252.336448598131;0.235770590820444;5;4;10;280.373831775701;1;0;0;1;0;126.168224299065;215.326764991174;4;43.0653529982349;0
CSE81;2;3;1;NoStress;3;2.74;11;240.875912408759;0.246917478148091;5;5;12;262.773722627737;1;0;0;1;0;120.43795620438;168.874692717473;3;42.2186731793682;0
CSE81;2;3;2;Stress;3;2.09;9;258.373205741627;0.230338231872778;5;4;10;287.081339712919;1;0;0;1;0;129.186602870813;215.326764991174;4;43.0653529982349;0
CSE81;2;4;1;NoStress;3;5;0;0;NA;0;0;1;12;0;0;0;0;0;0;168.874692717473;3;42.2186731793682;0
CSE81;2;4;2;Stress;3;5;5;60;0.98866451097;1;4;6;72;0;0;0;0;0;60;215.326764991174;4;43.0653529982349;0
CSE81;2;5;1;NoStress;3;2.81;9;192.170818505338;0.309178793544222;5;4;10;213.523131672598;1;0;0;1;0;96.085409252669;168.874692717473;3;42.2186731793682;0
CSE81;2;5;2;Stress;3;2.11;9;255.924170616114;0.231052995937778;5;4;10;284.36018957346;1;0;0;1;0;127.962085308057;215.326764991174;4;43.0653529982349;0
CSE84;1;1;1;NoStress;6;5;3;36;1.558193164535;0;1;3;36;0;0;0;0;0;36;168;0;168;0
CSE84;1;1;2;Stress;6;5;20;240;0.24791876522755;7;7;19;228;0;0;0;0;0;240;242.4;0;242.4;0
CSE84;1;2;1;NoStress;6;5;22;264;0.221844360927636;7;7;16;192;0;0;0;0;0;264;168;0;168;0
CSE84;1;2;2;Stress;6;5;16;192;0.298109554042063;7;7;17;204;0;0;0;0;0;192;242.4;0;242.4;0
CSE84;1;3;1;NoStress;6;5;16;192;0.203627608385937;7;7;17;204;0;0;0;0;0;192;168;0;168;0
CSE84;1;3;2;Stress;6;5;19;228;0.257175184319053;7;6;20;240;0;0;0;0;0;228;242.4;0;242.4;0
CSE84;1;4;1;NoStress;6;5;16;192;0.304532127836687;4;6;13;156;0;0;0;0;0;192;168;0;168;0
CSE84;1;4;2;Stress;6;5;24;288;0.206081977669125;7;6;21;252;0;0;0;0;0;288;242.4;0;242.4;0
CSE84;1;5;1;NoStress;6;5;13;156;0.363791946075538;6;5;14;168;0;0;0;0;0;156;168;0;168;0
CSE84;1;5;2;Stress;6;5;22;264;0.223956395698227;7;5;20;240;0;0;0;0;0;264;242.4;0;242.4;0
CSE84;2;1;1;NoStress;6;5;19;228;0.252775528037368;7;4;13;156;0;0;0;0;0;228;156;0;156;0
CSE84;2;1;2;Stress;6;5;21;252;0.235572717585533;6;4;21;252;0;0;0;0;0;252;264;0;264;0
CSE84;2;2;1;NoStress;6;5;16;192;0.305208402063375;7;3;16;192;0;0;0;0;0;192;156;0;156;0
CSE84;2;2;2;Stress;6;5;23;276;0.212602383368087;7;2;16;192;0;0;0;0;0;276;264;0;264;0
CSE84;2;3;1;NoStress;6;5;2;24;1.153136905591;0;1;2;24;0;0;0;0;0;24;156;0;156;0
CSE84;2;3;2;Stress;6;5;19;228;0.258251355535526;7;1;13;156;0;0;0;0;0;228;264;0;264;0
CSE84;2;4;1;NoStress;6;5;17;204;0.286089216886647;7;2;18;216;0;0;0;0;0;204;156;0;156;0
CSE84;2;4;2;Stress;6;5;25;300;0.199849856674768;7;3;20;240;0;0;0;0;0;300;264;0;264;0
CSE84;2;5;1;NoStress;6;5;11;132;0.387226842740273;0;7;8;96;0;0;0;0;0;132;156;0;156;0
CSE84;2;5;2;Stress;6;5;22;264;0.209164287908955;7;1;16;192;0;0;0;0;0;264;264;0;264;0
CSE86;1;1;1;NoStress;7;5;0;0;NA;0;0;1;12;0;0;0;0;0;0;31.2;0;31.2;0
CSE86;1;1;2;Stress;7;5;1;12;4.86383499499;1;0;2;24;0;0;0;0;0;12;100.8;0;100.8;0
CSE86;1;2;1;NoStress;7;5;13;156;0.383745414374769;6;5;14;168;0;0;0;0;0;156;31.2;0;31.2;0
CSE86;1;2;2;Stress;7;5;13;156;0.297843409943538;7;4;14;168;0;0;0;0;0;156;100.8;0;100.8;0
CSE86;1;3;1;NoStress;7;5;0;0;NA;0;0;1;12;0;0;0;0;0;0;31.2;0;31.2;0
CSE86;1;3;2;Stress;7;5;12;144;0.397994808200333;3;7;12;144;0;0;0;0;0;144;100.8;0;100.8;0
CSE86;1;4;1;NoStress;7;5;0;0;NA;0;0;1;12;0;0;0;0;0;0;31.2;0;31.2;0
CSE86;1;4;2;Stress;7;5;16;192;0.311466055031875;0;7;10;120;0;0;0;0;0;192;100.8;0;100.8;0
CSE86;1;5;1;NoStress;7;5;0;0;NA;0;0;1;12;0;0;0;0;0;0;31.2;0;31.2;0
CSE86;1;5;2;Stress;7;5;0;0;NA;0;0;1;12;0;0;0;0;0;0;100.8;0;100.8;0
CSE86;2;1;1;NoStress;7;5;4;48;1.2159455525695;4;0;5;60;0;0;0;0;0;48;12;0;12;0
CSE86;2;1;2;Stress;7;5;18;216;0.277403723157889;7;0;12;144;0;0;0;0;0;216;175.2;0;175.2;0
CSE86;2;2;1;NoStress;7;5;0;0;NA;0;0;1;12;0;0;0;0;0;0;12;0;12;0
CSE86;2;2;2;Stress;7;5;20;240;0.2460000674472;7;7;21;252;0;0;0;0;0;240;175.2;0;175.2;0
CSE86;2;3;1;NoStress;7;5;0;0;NA;0;0;1;12;0;0;0;0;0;0;12;0;12;0
CSE86;2;3;2;Stress;7;5;0;0;NA;0;0;1;12;0;0;0;0;0;0;175.2;0;175.2;0
CSE86;2;4;1;NoStress;7;5;0;0;NA;0;0;1;12;0;0;0;0;0;0;12;0;12;0
CSE86;2;4;2;Stress;7;5;19;228;0.258315514849179;7;7;20;240;0;0;0;0;0;228;175.2;0;175.2;0
CSE86;2;5;1;NoStress;7;5;1;12;1.55287390759;0;1;2;24;0;0;0;0;0;12;12;0;12;0
CSE86;2;5;2;Stress;7;5;16;192;0.311769017280562;3;4;10;120;0;0;0;0;0;192;175.2;0;175.2;0
CSE88;1;1;1;NoStress;6;4.93;5;60.8519269776876;0.981047365457;2;1;5;60.8519269776876;1;0;1;0;0;30.4259634888438;96.1703853955375;1;48.0851926977688;0
CSE88;1;1;2;Stress;6;2.92;8;164.383561643836;0.361644130538875;7;1;9;184.931506849315;1;0;0;0;1;82.1917808219178;211.558793253623;2;70.5195977512075;0
CSE88;1;2;1;NoStress;6;5;7;84;0.700978667166714;3;4;8;96;0;0;0;0;0;84;96.1703853955375;1;48.0851926977688;0
CSE88;1;2;2;Stress;6;5;22;264;0.224512883550864;7;6;23;276;0;0;0;0;0;264;211.558793253623;2;70.5195977512075;0
CSE88;1;3;1;NoStress;6;5;8;96;0.570220554454625;5;2;9;108;0;0;0;0;0;96;96.1703853955375;1;48.0851926977688;0
CSE88;1;3;2;Stress;6;5;20;240;0.2458559867609;7;7;20;240;0;0;0;0;0;240;211.558793253623;2;70.5195977512075;0
CSE88;1;4;1;NoStress;6;5;13;156;0.374605957060154;2;7;14;168;0;0;0;0;0;156;96.1703853955375;1;48.0851926977688;0
CSE88;1;4;2;Stress;6;1.73;5;173.410404624277;0.3409716683086;2;3;6;208.092485549133;1;1;0;0;0;86.7052023121387;211.558793253623;2;70.5195977512075;0
CSE88;1;5;1;NoStress;6;5;7;84;0.681382352711714;2;3;8;96;0;0;0;0;0;84;96.1703853955375;1;48.0851926977688;0
CSE88;1;5;2;Stress;6;5;18;216;0.269429950377889;5;5;18;216;0;0;0;0;0;216;211.558793253623;2;70.5195977512075;0
CSE88;2;1;1;NoStress;6;5;14;168;0.328915653145071;7;7;15;180;0;0;0;0;0;168;146.4;0;146.4;0
CSE88;2;1;2;Stress;6;1.41;7;297.872340425532;0.198742509602014;4;1;7;297.872340425532;1;1;0;0;0;148.936170212766;232.374468085106;1;116.187234042553;0
CSE88;2;2;1;NoStress;6;5;7;84;0.711976523941571;1;6;8;96;0;0;0;0;0;84;146.4;0;146.4;0
CSE88;2;2;2;Stress;6;5;17;204;0.284048307071941;6;6;18;216;0;0;0;0;0;204;232.374468085106;1;116.187234042553;0
CSE88;2;3;1;NoStress;6;5;11;132;0.435283842981;2;6;12;144;0;0;0;0;0;132;146.4;0;146.4;0
CSE88;2;3;2;Stress;6;5;13;156;0.364961698770538;6;3;14;168;0;0;0;0;0;156;232.374468085106;1;116.187234042553;0
CSE88;2;4;1;NoStress;6;5;14;168;0.354446509284429;5;2;14;168;0;0;0;0;0;168;146.4;0;146.4;0
CSE88;2;4;2;Stress;6;5;21;252;0.22675309390881;7;1;22;264;0;0;0;0;0;252;232.374468085106;1;116.187234042553;0
CSE88;2;5;1;NoStress;6;5;15;180;0.314408133794267;5;2;14;168;0;0;0;0;0;180;146.4;0;146.4;0
CSE88;2;5;2;Stress;6;5;21;252;0.206891366510762;5;3;22;264;0;0;0;0;0;252;232.374468085106;1;116.187234042553;0
EC01;1;1;1;NoStress;5;5;10;120;0.4812025455964;3;2;9;108;0;0;0;0;0;120;94.586301369863;1;47.2931506849315;0
EC01;1;1;2;Stress;5;3.48;13;224.137931034483;0.266321269509385;4;7;13;224.137931034483;1;0;0;0;1;112.068965517241;243.477400896835;5;40.5795668161391;0
EC01;1;2;1;NoStress;5;5;0;0;NA;0;0;1;12;0;0;0;0;0;0;94.586301369863;1;47.2931506849315;0
EC01;1;2;2;Stress;5;2.49;11;265.060240963855;0.224306136283727;4;7;12;289.156626506024;1;0;0;0;1;132.530120481928;243.477400896835;5;40.5795668161391;0
EC01;1;3;1;NoStress;5;5;14;168;0.295875187932357;7;7;15;180;0;0;0;0;0;168;94.586301369863;1;47.2931506849315;0
EC01;1;3;2;Stress;5;2.33;9;231.759656652361;0.256657959887667;6;3;10;257.510729613734;1;0;0;1;0;115.87982832618;243.477400896835;5;40.5795668161391;0
EC01;1;4;1;NoStress;5;5;0;0;NA;0;0;1;12;0;0;0;0;0;0;94.586301369863;1;47.2931506849315;0
EC01;1;4;2;Stress;5;1.9;9;284.210526315789;0.208886128004111;6;3;10;315.789473684211;1;0;0;1;0;142.105263157895;243.477400896835;5;40.5795668161391;0
EC01;1;5;1;NoStress;5;2.92;9;184.931506849315;0.321417976064111;6;3;10;205.479452054795;1;0;0;1;0;92.4657534246575;94.586301369863;1;47.2931506849315;0
EC01;1;5;2;Stress;5;3.11;11;212.218649517685;0.280345392189991;6;4;12;231.511254019293;1;0;0;1;0;106.109324758842;243.477400896835;5;40.5795668161391;0
EC01;2;1;1;NoStress;5;5;23;276;0.215856379745043;4;6;24;288;0;0;0;0;0;276;234.782877490719;2;78.260959163573;0
EC01;2;1;2;Stress;5;5;17;204;0.287237480001235;6;6;13;156;0;0;0;0;0;204;249.120316713087;4;49.8240633426173;0
EC01;2;2;1;NoStress;5;5;25;300;0.19353951016672;7;7;25;300;0;0;0;0;0;300;234.782877490719;2;78.260959163573;0
EC01;2;2;2;Stress;5;3.15;12;228.571428571429;0.260641312686583;5;7;13;247.619047619048;1;0;0;0;1;114.285714285714;249.120316713087;4;49.8240633426173;0
EC01;2;3;1;NoStress;5;5;19;228;0.262515422259368;7;7;19;228;0;0;0;0;0;228;234.782877490719;2;78.260959163573;0
EC01;2;3;2;Stress;5;1.78;7;235.955056179775;0.251309618475429;0;7;8;269.662921348315;1;0;0;1;0;117.977528089888;249.120316713087;4;49.8240633426173;0
EC01;2;4;1;NoStress;5;1.97;7;213.197969543147;0.278171573129286;0;7;8;243.654822335025;1;0;0;1;0;106.598984771574;234.782877490719;2;78.260959163573;0
EC01;2;4;2;Stress;5;1.54;7;272.727272727273;0.216402099076;0;7;8;311.688311688312;1;0;0;1;0;136.363636363636;249.120316713087;4;49.8240633426173;0
EC01;2;5;1;NoStress;5;2.68;7;156.716417910448;0.379505430027857;0;7;8;179.10447761194;1;0;0;1;0;78.3582089552239;234.782877490719;2;78.260959163573;0
EC01;2;5;2;Stress;5;1.38;7;304.347826086957;0.193365437578857;0;7;8;347.826086956522;1;0;0;1;0;152.173913043478;249.120316713087;4;49.8240633426173;0
EC03;1;1;1;NoStress;7;5;0;0;NA;0;0;1;12;0;0;0;0;0;0;102.115532734275;2;34.0385109114249;0
EC03;1;1;2;Stress;7;5;0;0;NA;0;0;1;12;0;0;0;0;0;0;118.714586497669;2;39.5715288325564;0
EC03;1;2;1;NoStress;7;5;0;0;NA;0;0;1;12;0;0;0;0;0;0;102.115532734275;2;34.0385109114249;0
EC03;1;2;2;Stress;7;5;7;84;0.576576068328143;1;5;7;84;0;0;0;0;0;84;118.714586497669;2;39.5715288325564;0
EC03;1;3;1;NoStress;7;4.56;12;157.894736842105;0.37779301314775;5;7;13;171.052631578947;1;1;0;0;0;78.9473684210526;102.115532734275;2;34.0385109114249;0
EC03;1;3;2;Stress;7;4.88;12;147.540983606557;0.404699624266833;5;7;13;159.83606557377;1;1;0;0;0;73.7704918032787;118.714586497669;2;39.5715288325564;0
EC03;1;4;1;NoStress;7;5;5;60;0.2936407494858;5;0;6;72;0;0;0;0;0;60;102.115532734275;2;34.0385109114249;0
EC03;1;4;2;Stress;7;3.13;12;230.031948881789;0.258610156287;5;7;13;249.201277955272;1;1;0;0;0;115.015974440895;118.714586497669;2;39.5715288325564;0
EC03;1;5;1;NoStress;7;2.46;12;292.682926829268;0.203269758586083;5;7;13;317.073170731707;1;1;0;0;0;146.341463414634;102.115532734275;2;34.0385109114249;0
EC03;1;5;2;Stress;7;5;11;132;0.446358032197727;5;6;12;144;0;0;0;0;0;132;118.714586497669;2;39.5715288325564;0
EC03;2;1;1;NoStress;7;5;24;288;0.208036785313542;7;7;25;300;0;0;0;0;0;288;144;0;144;0
EC03;2;1;2;Stress;7;5;18;216;0.275231263468278;7;7;19;228;0;0;0;0;0;216;136.8;0;136.8;0
EC03;2;2;1;NoStress;7;5;22;264;0.223368606000545;6;6;22;264;0;0;0;0;0;264;144;0;144;0
EC03;2;2;2;Stress;7;5;20;240;0.233487077251;4;5;21;252;0;0;0;0;0;240;136.8;0;136.8;0
EC03;2;3;1;NoStress;7;5;3;36;1.58281521942633;1;1;4;48;0;0;0;0;0;36;144;0;144;0
EC03;2;3;2;Stress;7;5;8;96;0.494272297796375;1;2;5;60;0;0;0;0;0;96;136.8;0;136.8;0
EC03;2;4;1;NoStress;7;5;7;84;0.705631797573286;1;1;5;60;0;0;0;0;0;84;144;0;144;0
EC03;2;4;2;Stress;7;5;7;84;0.62653431177;1;1;5;60;0;0;0;0;0;84;136.8;0;136.8;0
EC03;2;5;1;NoStress;7;5;4;48;0.86289266647875;0;2;3;36;0;0;0;0;0;48;144;0;144;0
EC03;2;5;2;Stress;7;5;4;48;0.47674327958875;0;2;3;36;0;0;0;0;0;48;136.8;0;136.8;0
EC05;1;1;1;NoStress;1;5;0;0;NA;0;0;1;12;0;0;0;0;0;0;93.6;0;93.6;0
EC05;1;1;2;Stress;1;5;6;72;0.8236116365155;4;0;6;72;0;0;0;0;0;72;124.8;0;124.8;0
EC05;1;2;1;NoStress;1;5;8;96;0.496191060594;0;7;8;96;0;0;0;0;0;96;93.6;0;93.6;0
EC05;1;2;2;Stress;1;5;20;240;0.24746459261355;3;3;12;144;0;0;0;0;0;240;124.8;0;124.8;0
EC05;1;3;1;NoStress;1;5;12;144;0.413542871228167;4;6;12;144;0;0;0;0;0;144;93.6;0;93.6;0
EC05;1;3;2;Stress;1;5;16;192;0.295907415390244;2;3;11;132;0;0;0;0;0;192;124.8;0;124.8;0
EC05;1;4;1;NoStress;1;5;9;108;0.527602995876;1;2;5;60;0;0;0;0;0;108;93.6;0;93.6;0
EC05;1;4;2;Stress;1;5;10;120;0.4880791303405;1;1;4;48;0;0;0;0;0;120;124.8;0;124.8;0
EC05;1;5;1;NoStress;1;5;10;120;0.485789343522;0;5;6;72;0;0;0;0;0;120;93.6;0;93.6;0
EC05;1;5;2;Stress;1;5;0;0;NA;0;0;1;12;0;0;0;0;0;0;124.8;0;124.8;0
EC05;2;1;1;NoStress;1;5;0;0;NA;0;0;1;12;0;0;0;0;0;0;2.4;0;2.4;0
EC05;2;1;2;Stress;1;5;0;0;NA;0;0;1;12;0;0;0;0;0;0;0;0;NA;1
EC05;2;2;1;NoStress;1;5;0;0;NA;0;0;1;12;0;0;0;0;0;0;2.4;0;2.4;0
EC05;2;2;2;Stress;1;5;0;0;NA;0;0;1;12;0;0;0;0;0;0;0;0;NA;1
EC05;2;3;1;NoStress;1;5;0;0;NA;0;0;1;12;0;0;0;0;0;0;2.4;0;2.4;0
EC05;2;3;2;Stress;1;5;0;0;NA;0;0;1;12;0;0;0;0;0;0;0;0;NA;1
EC05;2;4;1;NoStress;1;5;1;12;1.15227448899;0;1;2;24;0;0;0;0;0;12;2.4;0;2.4;0
EC05;2;4;2;Stress;1;5;0;0;NA;0;0;1;12;0;0;0;0;0;0;0;0;NA;1
EC05;2;5;1;NoStress;1;5;0;0;NA;0;0;1;12;0;0;0;0;0;0;2.4;0;2.4;0
EC05;2;5;2;Stress;1;5;0;0;NA;0;0;1;12;0;0;0;0;0;0;0;0;NA;1
EC06;1;1;1;NoStress;7;5;3;36;0.981678663777667;1;0;3;36;0;0;0;0;0;36;48;0;48;0
EC06;1;1;2;Stress;7;5;2;24;1.1123641771835;2;0;3;36;0;0;0;0;0;24;132.992242194891;2;44.3307473982971;0
EC06;1;2;1;NoStress;7;5;0;0;NA;0;0;1;12;0;0;0;0;0;0;48;0;48;0
EC06;1;2;2;Stress;7;5;7;84;0.711756727394;3;0;6;72;0;0;0;0;0;84;132.992242194891;2;44.3307473982971;0
EC06;1;3;1;NoStress;7;5;0;0;NA;0;0;1;12;0;0;0;0;0;0;48;0;48;0
EC06;1;3;2;Stress;7;5;12;144;0.412114598484583;3;0;4;48;0;0;0;0;0;144;132.992242194891;2;44.3307473982971;0
EC06;1;4;1;NoStress;7;5;8;96;0.59715076332575;1;7;9;108;0;0;0;0;0;96;48;0;48;0
EC06;1;4;2;Stress;7;2.8;10;214.285714285714;0.2781512457185;3;7;11;235.714285714286;1;1;0;0;0;107.142857142857;132.992242194891;2;44.3307473982971;0
EC06;1;5;1;NoStress;7;5;9;108;0.298052147359222;2;7;10;120;0;0;0;0;0;108;48;0;48;0
EC06;1;5;2;Stress;7;3.02;10;198.675496688742;0.2995201969847;3;7;11;218.543046357616;1;1;0;0;0;99.3377483443709;132.992242194891;2;44.3307473982971;0
EC06;2;1;1;NoStress;7;5;16;192;0.305190145832313;5;7;13;156;0;0;0;0;0;192;115.2;0;115.2;0
EC06;2;1;2;Stress;7;5;19;228;0.233577943533263;6;7;14;168;0;0;0;0;0;228;228;0;228;0
EC06;2;2;1;NoStress;7;5;7;84;0.460165855625286;7;0;8;96;0;0;0;0;0;84;115.2;0;115.2;0
EC06;2;2;2;Stress;7;5;20;240;0.24829280642495;7;7;21;252;0;0;0;0;0;240;228;0;228;0
EC06;2;3;1;NoStress;7;5;20;240;0.2443322199674;6;7;21;252;0;0;0;0;0;240;115.2;0;115.2;0
EC06;2;3;2;Stress;7;5;22;264;0.216929861416182;6;7;23;276;0;0;0;0;0;264;228;0;228;0
EC06;2;4;1;NoStress;7;5;5;60;0.8903793068386;1;1;6;72;0;0;0;0;0;60;115.2;0;115.2;0
EC06;2;4;2;Stress;7;5;13;156;0.373777004404385;2;3;11;132;0;0;0;0;0;156;228;0;228;0
EC06;2;5;1;NoStress;7;5;0;0;NA;0;0;1;12;0;0;0;0;0;0;115.2;0;115.2;0
EC06;2;5;2;Stress;7;5;21;252;0.233119699654238;5;7;22;264;0;0;0;0;0;252;228;0;228;0
EC07;1;1;1;NoStress;3;5;11;132;0.440587719547727;1;6;11;132;0;0;0;0;0;132;113.898795180723;1;56.9493975903614;0
EC07;1;1;2;Stress;3;5;13;156;0.378081735170154;2;5;11;132;0;0;0;0;0;156;182.762264150943;1;91.3811320754717;0
EC07;1;2;1;NoStress;3;5;8;96;0.441286967014625;2;6;9;108;0;0;0;0;0;96;113.898795180723;1;56.9493975903614;0
EC07;1;2;2;Stress;3;5;16;192;0.303554824253688;3;6;12;144;0;0;0;0;0;192;182.762264150943;1;91.3811320754717;0
EC07;1;3;1;NoStress;3;5;4;48;0.640028186057;0;2;3;36;0;0;0;0;0;48;113.898795180723;1;56.9493975903614;0
EC07;1;3;2;Stress;3;5;14;168;0.350067227194571;5;1;11;132;0;0;0;0;0;168;182.762264150943;1;91.3811320754717;0
EC07;1;4;1;NoStress;3;5;10;120;0.4930294367625;3;7;11;132;0;0;0;0;0;120;113.898795180723;1;56.9493975903614;0
EC07;1;4;2;Stress;3;5;19;228;0.260309089468105;4;7;19;228;0;0;0;0;0;228;182.762264150943;1;91.3811320754717;0
EC07;1;5;1;NoStress;3;4.15;12;173.493975903614;0.344191018094833;7;5;13;187.951807228916;1;0;1;0;0;86.7469879518072;113.898795180723;1;56.9493975903614;0
EC07;1;5;2;Stress;3;4.24;12;169.811320754717;0.351734059220917;7;5;13;183.962264150943;1;0;1;0;0;84.9056603773585;182.762264150943;1;91.3811320754717;0
EC07;2;1;1;NoStress;3;1.69;5;177.514792899408;0.3326227598878;5;0;6;213.01775147929;1;0;1;0;0;88.7573964497041;213.525475779054;5;35.5875792965091;0
EC07;2;1;2;Stress;3;1.9;5;157.894736842105;0.3759017265978;5;0;6;189.473684210526;1;0;1;0;0;78.9473684210526;219.746802992693;5;36.6244671654489;0
EC07;2;2;1;NoStress;3;1.6;5;187.5;0.3146896430044;5;0;6;225;1;0;1;0;0;93.75;213.525475779054;5;35.5875792965091;0
EC07;2;2;2;Stress;3;1.68;5;178.571428571429;0.331528259126;5;0;6;214.285714285714;1;0;1;0;0;89.2857142857143;219.746802992693;5;36.6244671654489;0
EC07;2;3;1;NoStress;3;1.45;5;206.896551724138;0.2847999092888;5;0;6;248.275862068966;1;0;1;0;0;103.448275862069;213.525475779054;5;35.5875792965091;0
EC07;2;3;2;Stress;3;1.34;5;223.880597014925;0.261469360186;5;0;6;268.65671641791;1;0;1;0;0;111.940298507463;219.746802992693;5;36.6244671654489;0
EC07;2;4;1;NoStress;3;1.29;5;232.558139534884;0.2510426202332;5;0;6;279.069767441861;1;0;1;0;0;116.279069767442;213.525475779054;5;35.5875792965091;0
EC07;2;4;2;Stress;3;1.09;5;275.229357798165;0.2131804401368;5;0;6;330.275229357798;1;0;1;0;0;137.614678899083;219.746802992693;5;36.6244671654489;0
EC07;2;5;1;NoStress;3;1.14;5;263.157894736842;0.2236411969034;5;0;6;315.789473684211;1;0;1;0;0;131.578947368421;213.525475779054;5;35.5875792965091;0
EC07;2;5;2;Stress;3;1.14;5;263.157894736842;0.2230090511116;5;0;6;315.789473684211;1;0;1;0;0;131.578947368421;219.746802992693;5;36.6244671654489;0
EC100;1;1;1;NoStress;5;5;1;12;4.43827775049;0;1;2;24;0;0;0;0;0;12;81.6;0;81.6;0
EC100;1;1;2;Stress;5;5;0;0;NA;0;0;1;12;0;0;0;0;0;0;2.4;0;2.4;0
EC100;1;2;1;NoStress;5;5;0;0;NA;0;0;1;12;0;0;0;0;0;0;81.6;0;81.6;0
EC100;1;2;2;Stress;5;5;0;0;NA;0;0;1;12;0;0;0;0;0;0;2.4;0;2.4;0
EC100;1;3;1;NoStress;5;5;1;12;4.42260654091;1;0;2;24;0;0;0;0;0;12;81.6;0;81.6;0
EC100;1;3;2;Stress;5;5;0;0;NA;0;0;1;12;0;0;0;0;0;0;2.4;0;2.4;0
EC100;1;4;1;NoStress;5;5;18;216;0.245412436622389;7;7;18;216;0;0;0;0;0;216;81.6;0;81.6;0
EC100;1;4;2;Stress;5;5;0;0;NA;0;0;1;12;0;0;0;0;0;0;2.4;0;2.4;0
EC100;1;5;1;NoStress;5;5;14;168;0.255436568739143;7;7;15;180;0;0;0;0;0;168;81.6;0;81.6;0
EC100;1;5;2;Stress;5;5;1;12;0.170048068347;1;0;2;24;0;0;0;0;0;12;2.4;0;2.4;0
EC100;2;1;1;NoStress;5;5;15;180;0.312417045242533;7;7;16;192;0;0;0;0;0;180;152.489272694131;3;38.1223181735326;0
EC100;2;1;2;Stress;5;5;21;252;0.233387014133776;7;7;22;264;0;0;0;0;0;252;103.903184713376;1;51.9515923566879;0
EC100;2;2;1;NoStress;5;5;1;12;0.82186364425;1;0;2;24;0;0;0;0;0;12;152.489272694131;3;38.1223181735326;0
EC100;2;2;2;Stress;5;5;0;0;NA;0;0;1;12;0;0;0;0;0;0;103.903184713376;1;51.9515923566879;0
EC100;2;3;1;NoStress;5;4.94;19;230.769230769231;0.258728476286316;6;7;20;242.914979757085;1;0;0;1;0;115.384615384615;152.489272694131;3;38.1223181735326;0
EC100;2;3;2;Stress;5;5;0;0;NA;0;0;1;12;0;0;0;0;0;0;103.903184713376;1;51.9515923566879;0
EC100;2;4;1;NoStress;5;3.84;9;140.625;0.422482724801556;6;2;10;156.25;1;0;0;1;0;70.3125;152.489272694131;3;38.1223181735326;0
EC100;2;4;2;Stress;5;5;0;0;NA;0;0;1;12;0;0;0;0;0;0;103.903184713376;1;51.9515923566879;0
EC100;2;5;1;NoStress;5;2.11;7;199.052132701422;0.298295422213286;6;1;8;227.488151658768;1;0;0;1;0;99.5260663507109;152.489272694131;3;38.1223181735326;0
EC100;2;5;2;Stress;5;4.71;21;267.515923566879;0.222952434714571;6;7;22;280.254777070064;1;0;0;1;0;133.757961783439;103.903184713376;1;51.9515923566879;0
EC11;1;1;1;NoStress;7;5;6;72;0.5496937830595;1;2;7;84;0;0;0;0;0;72;21.6;0;21.6;0
EC11;1;1;2;Stress;7;2.65;6;135.849056603774;0.4385636379275;3;3;7;158.490566037736;1;0;0;1;0;67.9245283018868;224.418162342907;3;56.1045405857268;0
EC11;1;2;1;NoStress;7;5;2;24;2.0304617105;0;1;2;24;0;0;0;0;0;24;21.6;0;21.6;0
EC11;1;2;2;Stress;7;2.78;11;237.410071942446;0.250410148470909;3;3;11;237.410071942446;1;1;0;0;0;118.705035971223;224.418162342907;3;56.1045405857268;0
EC11;1;3;1;NoStress;7;5;1;12;1.8598993961;0;1;2;24;0;0;0;0;0;12;21.6;0;21.6;0
EC11;1;3;2;Stress;7;5;17;204;0.280146065514941;4;3;18;216;0;0;0;0;0;204;224.418162342907;3;56.1045405857268;0
EC11;1;4;1;NoStress;7;5;0;0;NA;0;0;1;12;0;0;0;0;0;0;21.6;0;21.6;0
EC11;1;4;2;Stress;7;5;19;228;0.261387212025842;4;4;16;192;0;0;0;0;0;228;224.418162342907;3;56.1045405857268;0
EC11;1;5;1;NoStress;7;5;0;0;NA;0;0;1;12;0;0;0;0;0;0;21.6;0;21.6;0
EC11;1;5;2;Stress;7;3.03;16;316.831683168317;0.187926860321675;4;4;17;336.633663366337;1;0;0;1;0;158.415841584158;224.418162342907;3;56.1045405857268;0
EC11;2;1;1;NoStress;7;5;0;0;NA;0;0;1;12;0;0;0;0;0;0;24;0;24;0
EC11;2;1;2;Stress;7;5;22;264;0.221505789176305;4;5;18;216;0;0;0;0;0;264;266.4;0;266.4;0
EC11;2;2;1;NoStress;7;5;7;84;0.293087678326714;4;3;8;96;0;0;0;0;0;84;24;0;24;0
EC11;2;2;2;Stress;7;5;21;252;0.236204365013357;4;5;20;240;0;0;0;0;0;252;266.4;0;266.4;0
EC11;2;3;1;NoStress;7;5;0;0;NA;0;0;1;12;0;0;0;0;0;0;24;0;24;0
EC11;2;3;2;Stress;7;5;21;252;0.236151929330614;4;4;21;252;0;0;0;0;0;252;266.4;0;266.4;0
EC11;2;4;1;NoStress;7;5;1;12;0.515577866361;0;1;2;24;0;0;0;0;0;12;24;0;24;0
EC11;2;4;2;Stress;7;5;22;264;0.224317556665105;4;4;22;264;0;0;0;0;0;264;266.4;0;266.4;0
EC11;2;5;1;NoStress;7;5;2;24;2.494343474529;1;1;3;36;0;0;0;0;0;24;24;0;24;0
EC11;2;5;2;Stress;7;5;25;300;0.19778501342116;4;5;21;252;0;0;0;0;0;300;266.4;0;266.4;0
EC12;1;1;1;NoStress;3;5;13;156;0.294436809114;4;1;12;144;1;1;0;0;0;78;271.542474286743;5;45.2570790477904;0
EC12;1;1;2;Stress;3;1.95;5;153.846153846154;0.15577169894675;4;1;6;184.615384615385;1;1;0;0;0;76.9230769230769;278.801119404205;5;46.4668532340342;0
EC12;1;2;1;NoStress;3;2.12;9;254.716981132075;0.232809428015111;6;1;10;283.018867924528;1;1;0;0;0;127.358490566038;271.542474286743;5;45.2570790477904;0
EC12;1;2;2;Stress;3;0.93;5;322.58064516129;0.181856010917;4;1;6;387.096774193548;1;1;0;0;0;161.290322580645;278.801119404205;5;46.4668532340342;0
EC12;1;3;1;NoStress;3;1.06;5;283.018867924528;0.2064344657298;4;1;6;339.622641509434;1;1;0;0;0;141.509433962264;271.542474286743;5;45.2570790477904;0
EC12;1;3;2;Stress;3;0.99;5;303.030303030303;0.1926512821816;4;1;6;363.636363636364;1;1;0;0;0;151.515151515152;278.801119404205;5;46.4668532340342;0
EC12;1;4;1;NoStress;3;0.94;5;319.148936170213;0.182856087161;4;1;6;382.978723404255;1;1;0;0;0;159.574468085106;271.542474286743;5;45.2570790477904;0
