ID;trial;stress_duration;rt;target;first_button_correct;correct;bps;aversive_rating;helpless_rating;control_rating;exhausted_rating
CSE01;1;10.0168232046;1.00041054849;1;FALSE;0;[3];0;0;0;0
CSE01;2;10.0336024218;1.0015869498;2;FALSE;0;[1];0;0;0;0
CSE01;3;10.0168818544;1.00083233031;2;FALSE;0;[1];0;0;0;0
CSE01;4;5.83351962789;1.00953353176;3;FALSE;0;[2];0;0;0;0
CSE01;5;10.0168246708;NA;3;None;NA;[1];0;0;0;0
CSE01;6;10.0168109859;1.01695564724;3;FALSE;0;[1];0;0;0;0
CSE01;7;6.34758555905;1.03155638088;1;TRUE;1;[1];0;0;0;0
CSE01;8;6.3834909628;NA;2;None;NA;[3];0;0;0;0
CSE01;9;6.11409584256;NA;1;None;NA;[2];0;0;0;0
CSE01;10;10.0167586898;1.01709836183;1;FALSE;0;[3];0;0;0;0
CSE01;11;10.0501103838;1.00066517024;2;TRUE;1;[2];0;0;0;0
CSE01;12;6.38352810767;1.01781061728;3;FALSE;0;[2];0;0;0;0
CSE01;13;6.04873895612;1.01843519315;1;FALSE;0;[3];0;0;0;0
CSE01;14;6.05016952234;1.01672220134;1;TRUE;1;[1];0;0;0;0
CSE01;15;6.2668902853;1.00648245597;2;FALSE;0;[3];5;5;3;2
CSE01;16;5.80014447399;1.03488450346;3;FALSE;0;[2];0;0;0;0
CSE01;17;9.51689676121;1.00392819057;2;FALSE;0;[3];0;0;0;0
CSE01;18;9.51678825909;1.00699917365;3;FALSE;0;[2];0;0;0;0
CSE01;19;9.54780080379;1.01324153563;1;TRUE;1;[1];0;0;0;0
CSE01;20;9.55020006911;1.04195889424;3;FALSE;0;[1];0;0;0;0
CSE01;21;5.68357458763;1.02405300846;2;FALSE;0;[1];0;0;0;0
CSE01;22;5.68350078664;1.03560334833;3;FALSE;0;[2];0;0;0;0
CSE01;23;5.93506343709;1.01786754528;1;TRUE;1;[1];0;0;0;0
CSE01;24;9.55012333563;1.01120738395;1;FALSE;0;[2];0;0;0;0
CSE01;25;9.55012431312;1.03674812718;2;TRUE;1;[2];0;0;0;0
CSE01;26;9.51697300594;1.03755549797;2;TRUE;1;[2];0;0;0;0
CSE01;27;5.65072630438;1.02120763046;3;FALSE;0;[2];0;0;0;0
CSE01;28;5.91684974363;1.03011780003;1;TRUE;1;[1];0;0;0;0
CSE01;29;9.58352830317;1.01330797495;3;FALSE;0;[2];0;0;0;0
CSE01;30;5.81687677141;1.01852626124;1;TRUE;1;[1];6;5;3;5
CSE01;31;9.01691753302;1.04592917319;2;FALSE;0;[3];0;0;0;0
CSE01;32;9.03361561805;1.01294030679;3;TRUE;1;[3];0;0;0;0
CSE01;33;9.04885087947;1.02407794814;2;FALSE;0;[1];0;0;0;0
CSE01;34;9.04795989136;1.0354603356;3;TRUE;1;[3];0;0;0;0
CSE01;35;9.06412035329;1.02294654042;2;TRUE;1;[2];0;0;0;0
CSE01;36;9.01684715326;1.02836705771;1;FALSE;0;[2];0;0;0;0
CSE01;37;9.06417802559;1.01807671655;2;FALSE;0;[1];0;0;0;0
CSE01;38;9.05012748999;1.02296585084;1;TRUE;1;[1];0;0;0;0
CSE01;39;5.18338031019;1.00337030836;1;FALSE;0;[3];0;0;0;0
CSE01;40;5.01678410473;1.0296846891;1;TRUE;1;[1];0;0;0;0
CSE01;41;9.0335877594;0.685401083396;3;FALSE;0;[2, 3];0;0;0;0
CSE01;42;9.05015828113;0.742722288074;2;TRUE;1;[2, 1];0;0;0;0
CSE01;43;5.06681628881;1.01062485433;3;TRUE;1;[3];0;0;0;0
CSE01;44;9.03160393012;1.04306634231;3;TRUE;1;[3];0;0;0;0
CSE01;45;5.33508582175;NA;2;None;NA;[1];6;5;3;3
CSE01;46;4.33242458736;1.02026213451;3;TRUE;1;[3];0;0;0;0
CSE01;47;8.55254997085;1.02985503754;2;FALSE;0;[1];0;0;0;0
CSE01;48;8.55014826179;1.00799038531;3;FALSE;0;[1];0;0;0;0
CSE01;49;8.53349172037;1.04572140972;1;FALSE;0;[2];0;0;0;0
CSE01;50;8.51713820286;1.02126459544;1;FALSE;0;[3];0;0;0;0
CSE01;51;8.51684251015;1.01290815602;1;TRUE;1;[1];0;0;0;0
CSE01;52;8.53351957901;1.01223721736;2;TRUE;1;[2];0;0;0;0
CSE01;53;4.80023733616;1.01707249974;3;FALSE;0;[1];0;0;0;0
CSE01;54;4.38356085381;1.02400723188;2;TRUE;1;[2];0;0;0;0
CSE01;55;8.55019029414;1.03127267017;3;FALSE;0;[2];0;0;0;0
CSE01;56;4.80016109143;1.0281760755;2;FALSE;0;[3];0;0;0;0
CSE01;57;4.71674104601;1.02962392928;1;TRUE;1;[1];0;0;0;0
CSE01;58;8.53360510996;1.01155222238;1;FALSE;0;[3];0;0;0;0
CSE01;59;8.5335366852;1.03173866769;3;FALSE;0;[2];0;0;0;0
CSE01;60;8.54902071951;1.00336157741;2;FALSE;0;[1];6;6;2;5
CSE02;1;10.0167484179;1.01515607668;1;FALSE;0;[3, 2];0;0;0;0
CSE02;2;10.033896143;NA;3;None;NA;[3];0;0;0;0
CSE02;3;10.0169492934;NA;1;None;NA;[2, 1, 2, 1];0;0;0;0
CSE02;4;5.85010537408;1.02067742243;2;FALSE;0;[1];0;0;0;0
CSE02;5;10.01684519;1.01674988407;1;TRUE;1;[1];0;0;0;0
CSE02;6;10.0476568441;1.00013145693;2;FALSE;0;[3, 2, 2];0;0;0;0
CSE02;7;6.35009364412;1.02177969495;3;FALSE;0;[2];0;0;0;0
CSE02;8;6.40012824749;NA;2;None;NA;[];0;0;0;0
CSE02;9;6.11673111624;NA;3;None;NA;[];0;0;0;0
CSE02;10;10.0334127712;1.01693510359;2;TRUE;1;[2];0;0;0;0
CSE02;11;10.0501152468;1.01698445088;3;FALSE;0;[2, 1];0;0;0;0
CSE02;12;6.36677510356;1.01268636705;2;FALSE;0;[1];0;0;0;0
CSE02;13;6.06439402085;0.43432699133;3;FALSE;0;[1, 3, 2, 3, 1, 1, 2];0;0;0;0
CSE02;14;6.0501988227;1.02104417318;3;FALSE;0;[1];0;0;0;0
CSE02;15;6.26685545374;1.01360746603;2;FALSE;0;[3];7;6;2;6
CSE02;16;5.79772135887;1.03145353894;1;TRUE;1;[1, 3];0;0;0;0
CSE02;17;9.51692485597;1.01816113016;1;FALSE;0;[2];0;0;0;0
CSE02;18;9.51808661006;0.970285339517;1;TRUE;1;[1, 3];0;0;0;0
CSE02;19;9.55021641763;1.00022511582;2;FALSE;0;[1];0;0;0;0
CSE02;20;9.55028533111;1.00410840248;1;FALSE;0;[3];0;0;0;0
CSE02;21;5.66686395796;1.01468381403;1;TRUE;1;[1];0;0;0;0
CSE02;22;5.70024300553;NA;3;None;NA;[];0;0;0;0
CSE02;23;5.93341052294;1.01280543222;3;FALSE;0;[2];0;0;0;0
CSE02;24;9.56682700861;NA;2;None;NA;[1];0;0;0;0
CSE02;25;9.55027164616;NA;2;None;NA;[];0;0;0;0
CSE02;26;9.53362097785;0.24801015924;3;FALSE;0;[2, 3, 1, 2, 1, 2, 3, 2];0;0;0;0
CSE02;27;5.68338413055;0.31364466264;1;FALSE;0;[2, 1, 2, 3, 1, 2, 1, 2, 2, 1, 2, 3, 2, 1];0;0;0;0
CSE02;28;5.90019129599;0.825312036351;3;FALSE;0;[2, 2, 1, 2, 3, 2, 1, 2, 2, 1, 2, 3, 2, 2, 1, 2];0;0;0;0
CSE02;29;9.53402468373;0.409906709399;3;FALSE;0;[1, 2, 3, 3, 2, 3, 1, 2, 3, 2, 1, 2, 2, 3];0;0;0;0
CSE02;30;5.78672061794;0.72709285398;2;FALSE;0;[3, 2, 1, 3, 2, 3, 2, 3, 1, 2, 3, 2, 1, 3];7;7;1;7
CSE02;31;9.03351394203;0.632717318825;3;FALSE;0;[2, 1, 2, 3, 2, 3, 1, 2];0;0;0;0
CSE02;32;9.03337758132;0.1441215009;1;FALSE;0;[3, 2, 3, 1, 2, 3, 1, 2, 3, 1, 2, 3, 2, 1, 1, 3, 2, 2, 1, 3, 2, 3];0;0;0;0
CSE02;33;9.03379497215;NA;1;None;NA;[];0;0;0;0
CSE02;34;9.05044808421;NA;2;None;NA;[];0;0;0;0
CSE02;35;9.050312701;NA;2;None;NA;[];0;0;0;0
CSE02;36;9.03404667739;NA;1;None;NA;[1, 2, 3, 1, 2, 1, 2, 3, 1, 2];0;0;0;0
CSE02;37;9.06718379468;NA;1;None;NA;[2, 3, 1, 2];0;0;0;0
CSE02;38;9.08362136885;0.204762170119;3;TRUE;1;[3, 1, 2, 3, 2, 3, 1, 3, 2];0;0;0;0
CSE02;39;5.16739864832;0.460363340802;2;FALSE;0;[1, 2, 1, 3, 2, 2, 1, 2, 2, 1];0;0;0;0
CSE02;40;5.03382820702;0.217658580373;3;FALSE;0;[2, 3, 2, 2, 1, 3, 1];0;0;0;0
CSE02;41;9.0337822647;0.381853771895;3;FALSE;0;[2, 3, 2, 3, 1, 2, 1, 2, 3, 1];0;0;0;0
CSE02;42;9.03391813666;NA;2;None;NA;[];0;0;0;0
CSE02;43;5.08411256063;NA;1;None;NA;[2];0;0;0;0
CSE02;44;9.01746052382;1.01345416267;1;FALSE;0;[3, 1];0;0;0;0
CSE02;45;5.33369859104;NA;2;None;NA;[1];NA;7;1;7
CSE02;46;4.3508482711;0.541041888985;3;FALSE;0;[2, 1, 3, 2, 2, 1, 3, 3, 2, 3, 1];0;0;0;0
CSE02;47;8.51748838246;NA;2;None;NA;[];0;0;0;0
CSE02;48;8.5337842197;0.879364775529;2;FALSE;0;[3, 3];0;0;0;0
CSE02;49;8.53403494744;0.21700124432;2;TRUE;1;[2, 1, 2, 1, 1, 2, 2, 3];0;0;0;0
CSE02;50;8.567914473;1.0125483005;3;FALSE;0;[1];0;0;0;0
CSE02;51;8.53365958895;NA;1;None;NA;[];0;0;0;0
CSE02;52;8.53354180067;0.475458899457;1;FALSE;0;[3, 3, 3, 3];0;0;0;0
CSE02;53;4.80038405821;NA;3;None;NA;[3];0;0;0;0
CSE02;54;4.36772913974;NA;1;None;NA;[2];0;0;0;0
CSE02;55;8.55069099198;0.439137951382;2;FALSE;0;[3, 2, 1, 2, 1, 1, 2];0;0;0;0
CSE02;56;4.81698047549;0.253922567172;1;FALSE;0;[2, 1, 2, 3, 2, 1, 2, 3, 2];0;0;0;0
CSE02;57;4.7005367431;0.441866238319;3;FALSE;0;[2, 1, 2, 1, 3, 2, 1, 2, 3, 2, 1, 2, 3, 2];0;0;0;0
CSE02;58;8.56982156786;0.99386269116;3;FALSE;0;[1, 2, 3, 1, 2, 1, 3];0;0;0;0
CSE02;59;8.53430962384;NA;1;None;NA;[1, 2, 3, 3, 1, 2, 1, 3, 2, 3, 1, 2, 1, 2, 1, 3, 2, 1, 2];0;0;0;0
CSE02;60;8.51778163129;NA;2;None;NA;[];7;1;7;1
CSE05;1;10.03366446;1.01663502006;2;FALSE;0;[1];0;0;0;0
CSE05;2;10.0479168347;0.49860677676;2;TRUE;1;[2, 2, 2, 2, 2, 2, 2, 3, 3, 3];0;0;0;0
CSE05;3;10.0312979431;0.564518351664;1;FALSE;0;[3, 3, 3, 3, 3, 3, 3];0;0;0;0
CSE05;4;5.83097781329;NA;3;None;NA;[1, 1];0;0;0;0
CSE05;5;10.0001270744;NA;1;None;NA;[];0;0;0;0
CSE05;6;10.0334142211;0.650023313279;3;TRUE;1;[3, 3, 3, 3, 3, 3];0;0;0;0
CSE05;7;6.35024449609;NA;3;None;NA;[];0;0;0;0
CSE05;8;6.39891546862;0.58229107569;2;FALSE;0;[1, 1, 1, 1];0;0;0;0
CSE05;9;6.13354789362;NA;1;None;NA;[];0;0;0;0
CSE05;10;10.0333384652;0.616873016297;3;FALSE;0;[2, 2, 2, 2, 2, 2, 2, 2, 2, 2];0;0;0;0
CSE05;11;10.0501997757;0.965305211146;1;TRUE;1;[1, 1, 1, 1, 1];0;0;0;0
CSE05;12;6.36435220144;0.443897031568;2;FALSE;0;[3, 2, 3, 2, 3, 2];0;0;0;0
CSE05;13;6.06430161604;NA;3;None;NA;[1];0;0;0;0
CSE05;14;6.05024474046;0.520703973199;1;FALSE;0;[2, 2, 2, 2, 2, 2, 2, 2, 2];0;0;0;0
CSE05;15;6.28348545609;NA;3;None;NA;[];6;7;1;7
CSE05;16;5.80047164163;NA;2;None;NA;[];0;0;0;0
CSE05;17;9.55017216141;0.50424994087;2;TRUE;1;[2, 2, 2, 2, 2, 3, 3, 3, 2, 3, 3];0;0;0;0
CSE05;18;9.5505196611;NA;1;None;NA;[];0;0;0;0
CSE05;19;9.54778022966;0.480048560885;3;FALSE;0;[2, 2, 2, 2, 2, 2, 2, 2];0;0;0;0
CSE05;20;9.550151634;0.427253431605;1;FALSE;0;[3, 3, 3, 3, 3, 3, 3];0;0;0;0
CSE05;21;5.68599468732;NA;3;None;NA;[1, 1, 2, 2];0;0;0;0
CSE05;22;5.70032575041;0.481364487525;2;FALSE;0;[3, 3, 2, 2];0;0;0;0
CSE05;23;5.91678042272;0.404606823833;3;FALSE;0;[1, 3];0;0;0;0
CSE05;24;9.53358161722;0.803997427202;2;TRUE;1;[2, 1];0;0;0;0
CSE05;25;9.55036081807;1.00153755789;2;FALSE;0;[1, 1, 2, 3];0;0;0;0
CSE05;26;9.53358503845;NA;1;None;NA;[];0;0;0;0
CSE05;27;5.65026722286;0.581864971565;1;FALSE;0;[3, 3, 2, 1];0;0;0;0
CSE05;28;5.90011167888;1.00825171446;1;TRUE;1;[1, 1, 2, 3];0;0;0;0
CSE05;29;9.54815509923;1.029732136;3;TRUE;1;[3];0;0;0;0
CSE05;30;5.81675671845;NA;2;None;NA;[2, 1, 1];7;5;3;6
CSE05;31;9.03245089918;1.0242095501;2;FALSE;0;[3, 2, 1];0;0;0;0
CSE05;32;9.05035324248;0.957364253691;2;TRUE;1;[2, 3, 1, 1, 2, 3];0;0;0;0
CSE05;33;9.05186445068;0.698547821352;3;TRUE;1;[3, 1, 3, 1];0;0;0;0
CSE05;34;9.05018218074;1.01205896859;1;FALSE;0;[2, 3, 1];0;0;0;0
CSE05;35;9.05272757931;1.02646648326;1;FALSE;0;[2, 1, 2];0;0;0;0
CSE05;36;9.01722200635;1.0096894058;3;TRUE;1;[3, 2, 1, 3, 1];0;0;0;0
CSE05;37;9.06673851259;NA;1;None;NA;[2, 1, 3, 2, 1, 3, 3, 1];0;0;0;0
CSE05;38;9.01710812812;1.02298846211;3;TRUE;1;[3, 1, 1, 2, 3];0;0;0;0
CSE05;39;5.16708088043;1.01722917507;2;TRUE;1;[2, 1, 3, 2];0;0;0;0
CSE05;40;5.03366397123;1.00277678289;2;TRUE;1;[2, 1, 3];0;0;0;0
CSE05;41;9.03357501912;0.958710586906;3;TRUE;1;[3, 1, 3];0;0;0;0
CSE05;42;9.05087375889;NA;1;None;NA;[1, 3, 2, 1];0;0;0;0
CSE05;43;5.08357538568;1.02777769586;3;TRUE;1;[3, 1, 3, 2];0;0;0;0
CSE05;44;9.03366445997;1.00462241496;2;TRUE;1;[2, 1, 2, 3];0;0;0;0
CSE05;45;5.31659714229;1.00273615156;1;TRUE;1;[1];7;4;3;6
CSE05;46;4.33403273144;0.97250068685;3;TRUE;1;[3, 1, 3, 2, 1, 3, 2];0;0;0;0
CSE05;47;8.50036582773;1.01240163661;3;TRUE;1;[3, 1, 3, 3];0;0;0;0
CSE05;48;8.53388561835;1.02321404626;1;TRUE;1;[1, 3, 2];0;0;0;0
CSE05;49;8.51691336212;0.731783829931;1;FALSE;0;[3, 1, 2, 3, 1, 2];0;0;0;0
CSE05;50;8.51697103436;1.00594879858;2;TRUE;1;[2, 2, 1, 2, 3, 2, 2, 1, 2, 3, 2];0;0;0;0
CSE05;51;8.55026453475;1.0242336637;2;TRUE;1;[2, 1, 2, 2, 1, 3];0;0;0;0
CSE05;52;8.53363928945;0.996480557867;2;TRUE;1;[2, 3, 2];0;0;0;0
CSE05;53;4.800389532;0.998610423857;3;TRUE;1;[3, 2, 3, 3, 2];0;0;0;0
CSE05;54;4.38364747598;0.984366975981;1;FALSE;0;[2, 1, 2, 3, 3, 2, 3, 1, 2, 3, 1, 3, 2, 1, 3, 1];0;0;0;0
CSE05;55;8.55036032932;0.742536326806;1;FALSE;0;[3, 1, 2, 1, 2, 3, 1, 2, 1];0;0;0;0
CSE05;56;4.80043156431;0.753460833923;2;TRUE;1;[2, 3, 1, 2, 2];0;0;0;0
CSE05;57;4.70059700545;NA;1;None;NA;[1, 2, 1, 3, 1, 2, 3, 1, 2, 3, 2, 1];0;0;0;0
CSE05;58;8.55027039973;0.618892416305;3;TRUE;1;[3, 2, 3, 2, 3, 2, 3];0;0;0;0
CSE05;59;8.53387535465;0.496197767019;3;FALSE;0;[2, 3, 3, 2, 3, 2, 3, 2, 3, 2, 3, 2, 3, 2, 3];0;0;0;0
CSE05;60;8.53133093358;0.954171100571;2;FALSE;0;[3, 3, 2, 2, 2, 2];7;4;3;6
CSE07;1;10.0171252343;NA;2;None;NA;[2];0;0;0;0
CSE07;2;10.0348105736;0.502375511074;2;FALSE;0;[1, 1, 3, 3, 2];0;0;0;0
CSE07;3;10.0336937848;0.383675799327;1;FALSE;0;[2, 3, 1, 2, 3, 1, 2];0;0;0;0
CSE07;4;5.85016996205;0.920336375748;1;FALSE;0;[2, 1, 2, 2, 3];0;0;0;0
CSE07;5;10.000286895;0.516915316974;3;TRUE;1;[3, 3, 2, 3, 1, 3, 1, 1, 2, 3, 2, 2, 3, 2, 1, 3, 2, 2];0;0;0;0
CSE07;6;10.0335193019;0.45022467737;3;FALSE;0;[2, 3, 1, 2, 3, 1, 2, 3, 2];0;0;0;0
CSE07;7;6.3668208666;0.460339259467;2;FALSE;0;[1, 1, 2, 3, 2];0;0;0;0
CSE07;8;6.4001226757;0.473996741959;1;FALSE;0;[2, 3, 1, 2, 3, 2, 3, 2, 3, 2];0;0;0;0
CSE07;9;6.1167853102;0.523168955881;3;FALSE;0;[2, 3, 1];0;0;0;0
CSE07;10;10.0337123573;NA;1;None;NA;[1, 3, 2, 2, 3, 1, 2, 3, 2, 3, 2, 3, 1, 2, 3, 1, 1, 2];0;0;0;0
CSE07;11;10.0342661085;NA;3;None;NA;[3, 1, 2, 3, 1, 2, 3, 2, 3, 2];0;0;0;0
CSE07;12;6.36671285333;0.495602180301;3;FALSE;0;[2, 2, 2, 2, 2, 2, 2];0;0;0;0
CSE07;13;6.06510951616;0.456925665224;1;FALSE;0;[3, 3, 3, 3, 3, 1];0;0;0;0
CSE07;14;6.05021834808;0.420217870003;2;TRUE;1;[2, 2, 1, 3, 2, 1, 3, 1, 3, 2, 2, 1, 3, 2, 3, 1];0;0;0;0
CSE07;15;6.28347910236;0.725747704598;2;TRUE;1;[2, 1, 2, 2, 1, 3, 2, 3, 1, 2];7;7;1;7
CSE07;16;5.81682172191;0.605990151722;3;FALSE;0;[2, 3, 1, 2, 2, 1, 3];0;0;0;0
CSE07;17;9.55023960861;0.385425725502;2;TRUE;1;[2, 1, 3, 2, 1, 2, 3, 3, 1, 2, 3, 2];0;0;0;0
CSE07;18;9.53354740487;0.586222876663;1;FALSE;0;[3, 1, 2, 1, 2, 3, 2, 1];0;0;0;0
CSE07;19;9.53348191267;0.493807313805;2;TRUE;1;[2, 1, 3, 2, 1, 2, 2, 3];0;0;0;0
CSE07;20;9.54796497633;0.476712301294;1;FALSE;0;[2, 3, 2, 1, 2, 3, 2, 3, 1, 2, 1];0;0;0;0
CSE07;21;5.68446588418;0.215324226624;1;FALSE;0;[3, 2, 3, 2, 3, 1, 2, 3];0;0;0;0
CSE07;22;5.68344928875;0.446160085697;3;FALSE;0;[1, 2, 3, 2, 1, 2, 1, 2, 3, 3, 2];0;0;0;0
CSE07;23;5.95013159535;0.449155520782;2;FALSE;0;[1, 2, 3, 2, 1, 2, 2, 3, 2, 1, 3, 1, 2];0;0;0;0
CSE07;24;9.53165155214;0.395821620332;3;FALSE;0;[1, 2, 3, 1, 2, 3, 1, 2, 2, 2];0;0;0;0
CSE07;25;9.53350488381;NA;3;None;NA;[2, 1, 2, 3, 1, 1, 2, 3, 2, 1, 2, 3, 1, 2, 1, 2, 1, 2, 2, 2];0;0;0;0
CSE07;26;9.51689918843;0.46052905183;1;TRUE;1;[1, 2, 3, 1, 2, 2];0;0;0;0
CSE07;27;5.6668142685;0.507763207309;2;FALSE;0;[1, 2, 3, 1, 2, 1, 3, 3, 1, 2];0;0;0;0
CSE07;28;5.90018108106;0.557596798114;3;FALSE;0;[1, 2, 1, 3, 2, 1, 2, 3, 1, 2, 3, 1, 2, 1, 2];0;0;0;0
CSE07;29;9.56694794103;0.440620734087;3;FALSE;0;[1, 2, 3, 2, 1, 2, 1, 2, 1, 2, 1, 3, 2, 1, 2];0;0;0;0
CSE07;30;5.80016519676;0.509527068354;2;FALSE;0;[1, 2, 3, 2, 3, 2, 3, 2];7;7;1;7
CSE07;31;9.03353103182;0.51919901995;2;TRUE;1;[2, 3, 1, 2, 3, 1, 2, 3, 1, 2];0;0;0;0
CSE07;32;9.0334244848;NA;1;None;NA;[];0;0;0;0
CSE07;33;9.03346896085;NA;1;None;NA;[];0;0;0;0
CSE07;34;9.06682159972;0.89274903795;2;FALSE;0;[3, 1, 2, 3, 1, 2, 3, 1, 2, 3, 2, 2, 2, 2, 2];0;0;0;0
CSE07;35;9.03599334326;NA;3;None;NA;[1, 2, 3, 2, 1, 3, 2, 3, 2];0;0;0;0
CSE07;36;9.03363318011;0.608352797875;1;TRUE;1;[1, 2, 3, 1];0;0;0;0
CSE07;37;9.08646975017;0.560321364216;3;FALSE;0;[1, 3, 1, 1, 1, 2, 1, 2];0;0;0;0
CSE07;38;9.01717166533;0.715258150761;3;TRUE;1;[3, 2, 3, 1, 2, 2, 2, 1, 2, 2];0;0;0;0
CSE07;39;5.16684383775;NA;2;None;NA;[1, 3, 2, 2, 1, 2, 1, 2, 1];0;0;0;0
CSE07;40;5.01690969651;0.68273116637;3;FALSE;0;[2, 2, 2, 1, 2, 2, 1, 2, 2, 3, 2];0;0;0;0
CSE07;41;9.03489317195;NA;1;None;NA;[1, 2, 3, 1];0;0;0;0
CSE07;42;9.03344452346;0.439681689805;1;TRUE;1;[1, 2, 1, 3, 2, 2, 1, 3, 2, 1, 3, 2, 1, 2, 2];0;0;0;0
CSE07;43;5.08352993214;1.00428600922;1;FALSE;0;[2, 3, 1, 2, 3, 2];0;0;0;0
CSE07;44;9.03347775831;0.390597210681;2;TRUE;1;[2, 1, 3, 2, 2, 3, 1];0;0;0;0
CSE07;45;5.33664508845;0.317642106264;2;TRUE;1;[2, 1, 3, 2, 1];7;7;1;7
CSE07;46;4.35015603273;0.548418057789;3;FALSE;0;[2, 3, 1];0;0;0;0
CSE07;47;8.56812680073;0.797901714744;1;FALSE;0;[3, 3, 2];0;0;0;0
CSE07;48;8.53355669108;1.01009043623;1;FALSE;0;[2];0;0;0;0
CSE07;49;8.53357037602;1.01825053673;3;FALSE;0;[1];0;0;0;0
CSE07;50;8.54770838374;1.01021991917;3;TRUE;1;[3, 1];0;0;0;0
CSE07;51;8.54894784816;1.0121377699;2;TRUE;1;[2];0;0;0;0
CSE07;52;8.55017851514;1.0063925693;2;FALSE;0;[3, 3];0;0;0;0
CSE07;53;4.783533109;1.01663195752;1;FALSE;0;[2];0;0;0;0
CSE07;54;4.38348472297;1.01548767429;2;TRUE;1;[2];0;0;0;0
CSE07;55;8.53364857566;0.943689683126;1;FALSE;0;[3, 3, 2, 1, 2];0;0;0;0
CSE07;56;4.81677675711;0.515750638487;3;FALSE;0;[2, 3, 1, 2, 1, 2, 3, 1];0;0;0;0
CSE07;57;4.71663379838;0.509300072515;2;TRUE;1;[2, 3, 1];0;0;0;0
CSE07;58;8.55128308517;0.509831935242;2;TRUE;1;[2, 1, 1, 3, 1, 2, 3, 1];0;0;0;0
CSE07;59;8.55026453475;0.728939646772;1;TRUE;1;[1, 2, 3, 1, 2];0;0;0;0
CSE07;60;8.55023325489;NA;3;None;NA;[1, 2, 3, 2, 1, 2, 3, 2, 1];7;7;1;7
CSE08;1;10.0005772114;NA;3;None;NA;[3];0;0;0;0
CSE08;2;10.0502281476;1.01767700745;2;FALSE;0;[1];0;0;0;0
CSE08;3;10.016862785;1.00098041255;2;TRUE;1;[2];0;0;0;0
CSE08;4;5.86481620141;NA;1;None;NA;[3];0;0;0;0
CSE08;5;10.0167733441;NA;1;None;NA;[2];0;0;0;0
CSE08;6;10.0334948809;1.01568048716;2;FALSE;0;[3];0;0;0;0
CSE08;7;6.3501615801;1.01318681609;3;FALSE;0;[1];0;0;0;0
CSE08;8;6.40029979805;1.03262352119;1;FALSE;0;[2];0;0;0;0
CSE08;9;6.1336222486;NA;3;None;NA;[3];0;0;0;0
CSE08;10;10.0167718778;NA;3;None;NA;[2];0;0;0;0
CSE08;11;10.0502569837;1.03182626269;2;FALSE;0;[3];0;0;0;0
CSE08;12;6.36699357394;1.02011881747;1;FALSE;0;[2];0;0;0;0
CSE08;13;6.05015434663;NA;3;None;NA;[3, 3];0;0;0;0
CSE08;14;6.03351882951;1.01156533685;1;FALSE;0;[2];0;0;0;0
CSE08;15;6.26679680398;NA;2;None;NA;[3];5;7;1;5
CSE08;16;5.83364091877;1.01436064918;3;TRUE;1;[3];0;0;0;0
CSE08;17;9.51841749249;1.00378274626;1;TRUE;1;[1];0;0;0;0
CSE08;18;9.51682710636;1.04022086;2;TRUE;1;[2];0;0;0;0
CSE08;19;9.55023352381;1.0212828856;1;TRUE;1;[1];0;0;0;0
CSE08;20;9.53352371699;1.00358766649;2;FALSE;0;[3];0;0;0;0
CSE08;21;5.6834071017;1.02752542037;3;FALSE;0;[2];0;0;0;0
CSE08;22;5.68596374272;NA;3;None;NA;[3];0;0;0;0
CSE08;23;5.9335322212;1.00638351385;2;FALSE;0;[3];0;0;0;0
CSE08;24;9.55015874536;1.0185924895;2;FALSE;0;[3, 1];0;0;0;0
CSE08;25;9.56695945933;1.00710567452;3;TRUE;1;[3];0;0;0;0
CSE08;26;9.53360142792;1.00820410637;1;TRUE;1;[1];0;0;0;0
CSE08;27;5.6668654242;1.00522653442;1;TRUE;1;[1];0;0;0;0
CSE08;28;5.91670071612;1.00323476183;2;TRUE;1;[2];0;0;0;0
CSE08;29;9.55012648799;1.02340419054;2;TRUE;1;[2];0;0;0;0
CSE08;30;5.81692671321;1.00134928673;1;TRUE;1;[1];3;5;3;5
CSE08;31;9.03330964535;1.03587864401;2;TRUE;1;[2];0;0;0;0
CSE08;32;9.05017145281;1.02296701828;1;FALSE;0;[2, 1, 3, 2];0;0;0;0
CSE08;33;9.03390445171;1.03315315286;1;FALSE;0;[2, 1, 3];0;0;0;0
CSE08;34;9.05028190987;NA;3;None;NA;[];0;0;0;0
CSE08;35;9.03365665646;0.774251742716;3;FALSE;0;[2, 1, 3];0;0;0;0
CSE08;36;9.05287520698;NA;3;None;NA;[];0;0;0;0
CSE08;37;9.05288840318;1.00594706228;1;FALSE;0;[2, 1, 3];0;0;0;0
CSE08;38;9.04888066923;1.02012717954;3;TRUE;1;[3];0;0;0;0
CSE08;39;5.16668996366;1.01047197916;3;FALSE;0;[2];0;0;0;0
CSE08;40;5.03354033442;1.02724453546;3;FALSE;0;[2];0;0;0;0
CSE08;41;9.03333750398;1.01951804748;1;TRUE;1;[1];0;0;0;0
CSE08;42;9.03231993056;1.01922998298;2;FALSE;0;[3];0;0;0;0
CSE08;43;5.0834478633;1.02454795035;1;TRUE;1;[1];0;0;0;0
CSE08;44;9.08337503983;1.02698806431;2;TRUE;1;[2];0;0;0;0
CSE08;45;5.31709826377;1.02381912824;2;TRUE;1;[2];4;6;2;4
CSE08;46;4.35018504001;NA;1;None;NA;[2];0;0;0;0
CSE08;47;8.53342254615;1.04105198628;1;TRUE;1;[1];0;0;0;0
CSE08;48;8.53359018672;1.00147565454;3;TRUE;1;[3];0;0;0;0
CSE08;49;8.5169048173;1.02378455497;2;TRUE;1;[2];0;0;0;0
CSE08;50;8.55002042967;1.02386993144;3;FALSE;0;[2];0;0;0;0
CSE08;51;8.5475781557;1.00821935424;3;FALSE;0;[2];0;0;0;0
CSE08;52;8.58711689484;1.01593027137;2;FALSE;0;[3];0;0;0;0
CSE08;53;4.80010547183;1.02266966746;1;TRUE;1;[1];0;0;0;0
CSE08;54;4.36442422548;1.0198444155;2;FALSE;0;[3];0;0;0;0
CSE08;55;8.55015043665;1.02623401692;2;FALSE;0;[3];0;0;0;0
CSE08;56;4.81684802478;1.01596686101;1;TRUE;1;[1];0;0;0;0
CSE08;57;4.73336008414;1.00166574812;3;FALSE;0;[2];0;0;0;0
CSE08;58;8.5501123143;NA;1;None;NA;[];0;0;0;0
CSE08;59;8.5335706368;1.0209418004;3;FALSE;0;[2];0;0;0;0
CSE08;60;8.51683639257;NA;2;None;NA;[];4;6;2;3
CSE09;1;10.0002033191;NA;2;None;NA;[1];0;0;0;0
CSE09;2;10.0501572546;NA;3;None;NA;[];0;0;0;0
CSE09;3;10.016850558;1.00041981033;1;FALSE;0;[3];0;0;0;0
CSE09;4;5.84887575786;1.0325506037;3;FALSE;0;[2];0;0;0;0
CSE09;5;10.0001373381;NA;1;None;NA;[1, 3];0;0;0;0
CSE09;6;10.033596524;NA;3;None;NA;[2];0;0;0;0
CSE09;7;6.36698704085;1.0169971664;1;FALSE;0;[3];0;0;0;0
CSE09;8;6.40009286208;1.00466535666;2;FALSE;0;[1];0;0;0;0
CSE09;9;6.13332551337;NA;2;None;NA;[2];0;0;0;0
CSE09;10;10.0168989441;1.01723175719;3;TRUE;1;[3];0;0;0;0
CSE09;11;10.0500629263;1.03360820546;2;TRUE;1;[2];0;0;0;0
CSE09;12;6.36691812741;1.00038499933;1;TRUE;1;[1];0;0;0;0
CSE09;13;6.06694134294;1.0308673121;3;FALSE;0;[2];0;0;0;0
CSE09;14;6.03321627823;1.02613944666;1;FALSE;0;[3];0;0;0;0
CSE09;15;6.28355339203;1.01983201968;2;FALSE;0;[1];6;5;2;6
CSE09;16;5.80004740854;1.03207899871;2;FALSE;0;[3];0;0;0;0
CSE09;17;9.53340713425;1.01574216567;3;FALSE;0;[2];0;0;0;0
CSE09;18;9.51676918152;1.02025334474;1;TRUE;1;[1];0;0;0;0
CSE09;19;9.55029972459;1.0215327158;1;TRUE;1;[1];0;0;0;0
CSE09;20;9.55028701715;1.00569720138;3;FALSE;0;[1];0;0;0;0
CSE09;21;5.68326845206;0.61255055636;3;FALSE;0;[2, 2, 2, 2, 2];0;0;0;0
CSE09;22;5.69776617816;0.705873364603;3;FALSE;0;[2, 2, 2, 2];0;0;0;0
CSE09;23;5.91682050004;1.00240050651;2;FALSE;0;[1];0;0;0;0
CSE09;24;9.55007196811;1.0173151046;1;FALSE;0;[3];0;0;0;0
CSE09;25;9.53597648145;NA;2;None;NA;[1];0;0;0;0
CSE09;26;9.53336607943;1.00788064339;1;FALSE;0;[3];0;0;0;0
CSE09;27;5.6667038115;1.00115876736;2;FALSE;0;[1];0;0;0;0
CSE09;28;5.93581519468;1.05490633424;2;FALSE;0;[1];0;0;0;0
CSE09;29;9.56683308529;NA;1;None;NA;[2];0;0;0;0
CSE09;30;5.78103365273;1.00676714352;2;FALSE;0;[1];6;7;1;6
CSE09;31;9.04889335278;0.620604786468;1;FALSE;0;[2, 2, 2, 2];0;0;0;0
CSE09;32;9.05004044388;0.565946458161;3;FALSE;0;[1, 1, 1, 3, 2];0;0;0;0
CSE09;33;9.03352614434;1.01911794289;3;TRUE;1;[3];0;0;0;0
CSE09;34;9.06689686688;1.02536189582;2;FALSE;0;[1];0;0;0;0
CSE09;35;9.05007172374;1.0298873704;1;TRUE;1;[1];0;0;0;0
CSE09;36;9.01675916219;0.816163580149;3;FALSE;0;[2, 3];0;0;0;0
CSE09;37;9.05019879817;NA;1;None;NA;[];0;0;0;0
CSE09;38;9.03147389231;1.01168045937;3;FALSE;0;[1];0;0;0;0
CSE09;39;5.1668985775;1.00361287982;2;FALSE;0;[1];0;0;0;0
CSE09;40;5.03347531457;1.00556839741;2;FALSE;0;[1];0;0;0;0
CSE09;41;9.01712816678;1.0103053627;2;TRUE;1;[2];0;0;0;0
CSE09;42;9.0335012182;1.03137044147;3;TRUE;1;[3];0;0;0;0
CSE09;43;5.08340090272;NA;1;None;NA;[];0;0;0;0
CSE09;44;9.05009371739;1.02648363769;1;FALSE;0;[2];0;0;0;0
CSE09;45;5.33358797094;NA;3;None;NA;[];7;7;1;7
CSE09;46;4.33387535464;1.02391708322;2;FALSE;0;[3];0;0;0;0
CSE09;47;8.53365053066;1.02753444431;3;TRUE;1;[3];0;0;0;0
CSE09;48;8.53335581573;1.01794651789;1;FALSE;0;[3, 3];0;0;0;0
CSE09;49;8.54874306283;1.02197682071;2;FALSE;0;[1];0;0;0;0
CSE09;50;8.53121998783;1.04682890957;1;FALSE;0;[2];0;0;0;0
CSE09;51;8.51690505341;1.02597321853;3;TRUE;1;[3];0;0;0;0
CSE09;52;8.54981781925;1.00182872134;2;FALSE;0;[1];0;0;0;0
CSE09;53;4.78343193821;1.0188401266;1;FALSE;0;[2];0;0;0;0
CSE09;54;4.38352871027;1.02677776472;3;TRUE;1;[3];0;0;0;0
CSE09;55;8.56929832921;NA;1;None;NA;[2];0;0;0;0
CSE09;56;4.80019892035;1.00809627104;2;FALSE;0;[1];0;0;0;0
CSE09;57;4.71918408441;1.01811230429;3;TRUE;1;[3];0;0;0;0
CSE09;58;8.58338648466;1.00800327538;2;FALSE;0;[1];0;0;0;0
CSE09;59;8.53345405404;1.02617879565;3;TRUE;1;[3];0;0;0;0
CSE09;60;8.53340029178;1.02971177226;1;FALSE;0;[2];7;7;1;7
CSE101;1;9.33356939886;1.00145331757;3;TRUE;1;[3];0;0;0;0
CSE101;2;10.2167184251;1.02122468251;3;FALSE;0;[1, 1];0;0;0;0
CSE101;3;7.76696079553;0.836510837093;3;TRUE;1;[3, 3, 3];0;0;0;0
CSE101;4;7.86622073253;0.561675866927;1;FALSE;0;[3, 3, 2, 2];0;0;0;0
CSE101;5;5.55000825986;0.520150812837;1;FALSE;0;[2, 2, 2, 2, 2];0;0;0;0
CSE101;6;6.68413991501;0.490240393498;2;FALSE;0;[1, 1, 1, 1, 1, 1, 1];0;0;0;0
CSE101;7;10.0341610778;1.01976075416;1;FALSE;0;[2, 2, 2];0;0;0;0
CSE101;8;6.84979145101;0.638516697379;2;FALSE;0;[1, 1, 1, 1, 1];0;0;0;0
CSE101;9;8.80032472452;1.01450327907;2;FALSE;0;[3];0;0;0;0
CSE101;10;8.90029236936;0.438173555538;1;FALSE;0;[3, 1, 2];0;0;0;0
CSE101;11;5.46711602206;0.757132967954;1;FALSE;0;[2, 1, 3];0;0;0;0
CSE101;12;10.8674880574;0.576302360079;2;TRUE;1;[2, 1, 3];0;0;0;0
CSE101;13;9.45066914559;1.00484282612;1;FALSE;0;[2];0;0;0;0
CSE101;14;6.53353499097;1.00719564242;3;TRUE;1;[3];0;0;0;0
CSE101;15;6.55024285913;1.00253051434;3;TRUE;1;[3];4;4;3;2
CSE101;16;4.53378962894;NA;2;None;NA;[1];0;0;0;0
CSE101;17;11.3670315663;1.02495768365;2;FALSE;0;[3];0;0;0;0
CSE101;18;9.41427106579;1.02702012254;3;TRUE;1;[3];0;0;0;0
CSE101;19;6.68215217478;1.0206188192;2;FALSE;0;[1];0;0;0;0
CSE101;20;8.75031499841;1.01195984142;2;FALSE;0;[1];0;0;0;0
CSE101;21;9.58362389433;1.03220971586;2;FALSE;0;[1];0;0;0;0
CSE101;22;4.55020766925;1.02019955843;3;TRUE;1;[3];0;0;0;0
CSE101;23;9.13356128563;1.00923196303;1;FALSE;0;[2];0;0;0;0
CSE101;24;9.51713503437;1.00848142328;3;TRUE;1;[3];0;0;0;0
CSE101;25;9.90027477441;NA;1;None;NA;[];0;0;0;0
CSE101;26;11.1144991159;NA;1;None;NA;[];0;0;0;0
CSE101;27;9.55046621722;0.51913217447;3;FALSE;0;[1, 3, 1, 2];0;0;0;0
CSE101;28;7.73366382509;NA;1;None;NA;[1, 2];0;0;0;0
CSE101;29;4.85030023822;NA;3;None;NA;[3, 3, 3, 1, 2];0;0;0;0
CSE101;30;10.1195620618;1.00314848816;3;FALSE;0;[1];4;4;3;2
CSE101;31;10.5168584027;1.02682654868;2;FALSE;0;[3];0;0;0;0
CSE101;32;10.6827777729;1.02720688455;1;TRUE;1;[1, 2, 2, 1, 2, 1, 2, 1, 2, 1, 2, 1, 2, 1];0;0;0;0
CSE101;33;5.9335702786;1.01434365471;2;FALSE;0;[3];0;0;0;0
CSE101;34;8.76708249391;1.00837251256;3;TRUE;1;[3];0;0;0;0
CSE101;35;8.96693225262;1.00380040344;1;FALSE;0;[2];0;0;0;0
CSE101;36;9.95029623047;1.04323250319;2;TRUE;1;[2];0;0;0;0
CSE101;37;8.10018122794;1.00010658683;3;FALSE;0;[2, 2, 2];0;0;0;0
CSE101;38;7.65032633739;1.01345817874;2;FALSE;0;[1];0;0;0;0
CSE101;39;7.5669375311;1.00964959264;2;FALSE;0;[1];0;0;0;0
CSE101;40;9.31677306721;1.04118658306;3;TRUE;1;[3];0;0;0;0
CSE101;41;6.04989438145;1.02601236452;1;FALSE;0;[2];0;0;0;0
CSE101;42;8.35026162707;1.02390916044;1;FALSE;0;[2];0;0;0;0
CSE101;43;11.5193686151;NA;3;None;NA;[2];0;0;0;0
CSE101;44;8.51430029295;1.00904987301;1;TRUE;1;[1];0;0;0;0
CSE101;45;10.5335486759;1.01676193565;2;FALSE;0;[3, 3, 3, 3, 1, 1, 2, 2, 1, 1, 3, 3, 1, 1];4;4;2;3
CSE101;46;9.68333592371;NA;2;None;NA;[1];0;0;0;0
CSE101;47;8.63050318616;NA;1;None;NA;[2];0;0;0;0
CSE101;48;10.5842045276;NA;2;None;NA;[1];0;0;0;0
CSE101;49;10.2835621165;1.01743488905;3;TRUE;1;[3];0;0;0;0
CSE101;50;6.65039769467;NA;3;None;NA;[3];0;0;0;0
CSE101;51;11.4002302983;NA;3;None;NA;[1];0;0;0;0
CSE101;52;9.21707081281;1.03165193684;1;TRUE;1;[1, 1, 1, 1];0;0;0;0
CSE101;53;11.0030698295;1.00242640151;1;FALSE;0;[3, 1, 1, 2, 1, 2, 1, 2, 1, 1, 1, 2, 1, 2, 1, 1, 2];0;0;0;0
CSE101;54;7.85032076566;1.02602330931;2;FALSE;0;[1];0;0;0;0
CSE101;55;10.9669933462;1.03210870871;1;FALSE;0;[2];0;0;0;0
CSE101;56;7.18444342785;1.01894055207;3;FALSE;0;[1, 1, 1, 1, 1, 1, 1, 1, 1, 1, 1, 1, 1, 1];0;0;0;0
CSE101;57;9.66700732439;NA;1;None;NA;[3];0;0;0;0
CSE101;58;9.66687878352;1.01002510802;3;FALSE;0;[1, 2, 3];0;0;0;0
CSE101;59;9.93436156247;1.03001970465;2;FALSE;0;[1];0;0;0;0
CSE101;60;4.94964570621;1.03074032162;2;FALSE;0;[1, 1];5;4;2;5
CSE103;1;9.31680745869;1.01330159623;2;FALSE;0;[1, 2, 3, 2, 1, 1];0;0;0;0
CSE103;2;10.216728477;0.67299147404;3;FALSE;0;[1, 3, 1, 2, 2, 1, 3, 2, 1, 1];0;0;0;0
CSE103;3;7.74986706053;0.21390318682;3;TRUE;1;[3, 3, 1, 1, 1];0;0;0;0
CSE103;4;7.85016891132;0.45849243207;3;FALSE;0;[2, 3, 1, 2, 3, 3, 1, 1, 2];0;0;0;0
CSE103;5;5.53418303809;0.94739895491;2;FALSE;0;[3, 2, 1, 3, 2, 1];0;0;0;0
CSE103;6;6.70010126859;0.639186477351;1;TRUE;1;[1, 3, 1, 1, 1, 1, 3, 2, 3];0;0;0;0
CSE103;7;10.0500649057;1.0206360532;2;FALSE;0;[1, 2, 1, 2, 2, 1, 2, 3, 3, 3];0;0;0;0
CSE103;8;6.85009559912;1.00933087083;1;FALSE;0;[2];0;0;0;0
CSE103;9;8.80020419894;0.252357791351;1;TRUE;1;[1, 3, 1, 3, 3];0;0;0;0
CSE103;10;8.90454310857;0.3948132522;3;FALSE;0;[1, 2, 1];0;0;0;0
CSE103;11;5.46702612456;0.42307207704;3;TRUE;1;[3, 2, 3, 2];0;0;0;0
CSE103;12;10.8668493933;NA;1;None;NA;[3, 2, 1, 1, 1, 1];0;0;0;0
CSE103;13;9.46688292139;1.01719083354;2;FALSE;0;[1, 1, 2];0;0;0;0
CSE103;14;6.51714137135;0.195812035326;1;FALSE;0;[2, 1, 1, 3, 1];0;0;0;0
CSE103;15;6.55016656533;0.700601361544;2;TRUE;1;[2, 3, 2, 1];7;6;2;6
CSE103;16;4.550999392;NA;1;None;NA;[2, 3];0;0;0;0
CSE103;17;11.3704553763;0.991393530524;3;TRUE;1;[3, 2, 2, 1, 1, 2];0;0;0;0
CSE103;18;9.434956433;1.02047386317;2;FALSE;0;[3, 1, 1];0;0;0;0
CSE103;19;6.68336360314;1.02281183134;2;FALSE;0;[1, 1, 3];0;0;0;0
CSE103;20;8.73493434158;1.00880805147;2;TRUE;1;[2, 1];0;0;0;0
CSE103;21;9.58371178724;0.901524075978;3;TRUE;1;[3, 2, 2, 1, 2, 3];0;0;0;0
CSE103;22;4.55010889306;1.0647993576;1;TRUE;1;[1, 2, 3, 2, 1];0;0;0;0
CSE103;23;9.15029833181;0.424730196113;1;FALSE;0;[2, 3, 2, 1, 3, 2, 1, 3, 1, 3];0;0;0;0
CSE103;24;9.51649231395;0.421948844912;1;FALSE;0;[2, 1, 1, 3, 1];0;0;0;0
CSE103;25;9.90019178473;0.758773908225;3;FALSE;0;[1, 2, 3, 2, 1, 2, 3, 2];0;0;0;0
CSE103;26;11.0667844875;0.43026949237;3;TRUE;1;[3, 1, 3, 2, 2, 1, 2];0;0;0;0
CSE103;27;9.56687343967;0.658106968795;2;TRUE;1;[2, 1, 1, 1, 2, 3, 2, 3, 3, 2, 1, 2, 3];0;0;0;0
CSE103;28;7.75048483806;0.708069951507;3;FALSE;0;[1, 2, 3, 3, 2];0;0;0;0
CSE103;29;4.8502226736;0.296929734081;2;FALSE;0;[3, 3, 3, 1, 1, 1, 2, 2, 2];0;0;0;0
CSE103;30;10.1668360993;0.336378744072;1;TRUE;1;[1, 2, 2, 2, 3, 3, 1, 1, 1, 3, 2, 3, 2, 1, 2, 2, 1, 3, 2, 3];7;1;1;7
CSE103;31;10.5169688433;1.0105922771;2;FALSE;0;[1, 2, 3, 2, 1, 3, 2, 3, 1];0;0;0;0
CSE103;32;10.6667471472;0.328482729179;3;FALSE;0;[1, 2, 3, 2, 3, 3, 2, 3, 3, 2, 2, 1, 1, 3, 2, 3, 2, 3];0;0;0;0
CSE103;33;5.95017800204;0.396935023247;1;TRUE;1;[1, 2, 1, 1, 3, 3, 2];0;0;0;0
CSE103;34;8.76682564011;0.568128629292;3;FALSE;0;[2, 2, 1, 2, 2, 1, 1, 3, 2, 3];0;0;0;0
CSE103;35;8.98334297797;0.715857888753;1;TRUE;1;[1, 1, 1];0;0;0;0
CSE103;36;9.98720653124;0.423449310107;2;FALSE;0;[1, 2, 1, 2, 3, 3, 2, 1, 1, 1, 2, 3, 3, 3, 1];0;0;0;0
CSE103;37;8.08357347154;NA;1;None;NA;[1, 1];0;0;0;0
CSE103;38;7.65019911596;1.02256251914;1;FALSE;0;[3, 1, 2, 2, 1, 2];0;0;0;0
CSE103;39;7.58343320085;0.521993193374;3;FALSE;0;[2, 3, 3, 2, 1, 1, 2];0;0;0;0
CSE103;40;9.33375675205;0.29722309423;2;FALSE;0;[1, 1, 2, 2, 3, 3, 2, 2];0;0;0;0
CSE103;41;6.03292939937;0.499215850379;1;FALSE;0;[2, 1, 1, 2, 3, 3, 2];0;0;0;0
CSE103;42;8.35033704065;0.342046536982;3;FALSE;0;[1, 2, 2, 1, 2, 3];0;0;0;0
CSE103;43;11.5002966701;0.324442535087;2;FALSE;0;[1, 1, 1, 3, 2, 2, 2, 2, 1, 1, 3, 3, 3, 1];0;0;0;0
CSE103;44;8.50064710241;0.522532953569;2;FALSE;0;[3, 1, 3, 3, 2, 2, 1, 1, 2];0;0;0;0
CSE103;45;10.5539499639;0.167141366792;3;TRUE;1;[3, 2, 2, 3, 2, 2, 3, 1, 1, 2, 3, 3, 2, 3, 2, 3];7;6;1;7
CSE103;46;9.66753500902;0.348665960481;2;TRUE;1;[2, 1, 1, 2, 1, 2, 3, 2, 2, 3, 1, 3, 1];0;0;0;0
CSE103;47;8.6182120228;0.602259578332;1;FALSE;0;[2, 3, 2];0;0;0;0
CSE103;48;10.6004909963;0.655231781738;3;FALSE;0;[1, 1, 3, 2, 2, 3, 1, 3, 2, 2, 3, 1];0;0;0;0
CSE103;49;10.2835940967;0.384662296191;3;TRUE;1;[3, 2, 3, 2, 1, 1, 2, 3, 3, 2, 3, 2, 3, 2, 3, 2, 2, 3, 1, 2, 1, 2];0;0;0;0
CSE103;50;6.65034671786;0.458630231231;1;FALSE;0;[2, 3, 2, 3, 1, 1];0;0;0;0
CSE103;51;11.4339637857;0.260450718994;3;FALSE;0;[1, 2, 1, 2, 1, 2, 3, 2, 2, 3, 1, 3, 1, 3, 2, 3, 1, 1, 2, 2, 2, 3, 3];0;0;0;0
CSE103;52;9.21740832554;0.431166918558;1;FALSE;0;[3, 1, 2, 2, 1, 1, 1, 3, 3, 1];0;0;0;0
CSE103;53;10.9499859241;0.2687687184;2;FALSE;0;[3, 2, 3, 1, 3, 1, 2, 2, 1, 3, 3, 2];0;0;0;0
CSE103;54;7.85017770879;0.342789988621;2;TRUE;1;[2, 1, 2, 2, 3, 1];0;0;0;0
CSE103;55;10.9834661425;0.0682750876279;2;FALSE;0;[1, 3, 1, 3, 1, 1, 1, 1, 1, 2, 3, 3, 2, 1, 1, 1, 3, 2, 3, 2, 3, 2, 3];0;0;0;0
CSE103;56;7.20019657447;0.261972944247;3;FALSE;0;[1, 2, 1, 1, 2, 3, 2, 3];0;0;0;0
CSE103;57;9.68553755443;0.529830768166;1;TRUE;1;[1, 1, 3, 2, 1, 3, 3, 3, 3, 2];0;0;0;0
CSE103;58;9.68287045635;0.219989201941;1;FALSE;0;[3, 2, 2, 3, 3, 2, 1, 3, 3, 1, 3, 1, 1];0;0;0;0
CSE103;59;9.93389878223;0.27940660218;2;TRUE;1;[2, 3, 1, 3, 1, 1, 3, 1, 3];0;0;0;0
CSE103;60;4.95063742519;0.122518458162;3;FALSE;0;[1, 3, 1, 2, 3, 3, 2, 2, 3, 2, 3, 2, 3, 1, 2, 1];7;5;1;7
CSE107;1;9.33339931429;1.02574186932;3;FALSE;0;[1, 3];0;0;0;0
CSE107;2;10.2165358044;1.00420076555;3;TRUE;1;[3, 2, 2, 2];0;0;0;0
CSE107;3;7.74992827626;1.01632201702;2;TRUE;1;[2];0;0;0;0
CSE107;4;7.86676050625;0.81755688835;1;TRUE;1;[1, 1];0;0;0;0
CSE107;5;5.53263637896;NA;2;None;NA;[];0;0;0;0
CSE107;6;6.70015615493;NA;3;None;NA;[2, 1, 3];0;0;0;0
CSE107;7;10.0645005364;NA;2;None;NA;[2, 3, 1];0;0;0;0
CSE107;8;6.83210242199;1.01044746992;1;FALSE;0;[3];0;0;0;0
CSE107;9;8.80017790421;NA;1;None;NA;[2];0;0;0;0
CSE107;10;8.90026563444;NA;2;None;NA;[];0;0;0;0
CSE107;11;5.46680498229;NA;1;None;NA;[1];0;0;0;0
CSE107;12;10.8500526626;1.00797553675;3;TRUE;1;[3];0;0;0;0
CSE107;13;9.46679031986;0.750086587816;2;FALSE;0;[1, 1, 1];0;0;0;0
CSE107;14;6.51682978624;0.952018104456;3;FALSE;0;[2, 3, 1];0;0;0;0
CSE107;15;6.53353029871;1.01188686371;1;FALSE;0;[3, 3];6;5;1;5
CSE107;16;4.55015407775;0.950168205373;3;TRUE;1;[3, 1];0;0;0;0
CSE107;17;11.3668497027;NA;2;None;NA;[];0;0;0;0
CSE107;18;9.41681341321;NA;1;None;NA;[];0;0;0;0
CSE107;19;6.68344146878;NA;3;None;NA;[2, 1];0;0;0;0
CSE107;20;8.73349364261;1.02717025177;1;FALSE;0;[2, 1];0;0;0;0
CSE107;21;9.56678225553;1.01022948549;1;TRUE;1;[1];0;0;0;0
CSE107;22;4.54705199543;0.89476051676;2;TRUE;1;[2, 2, 2, 2];0;0;0;0
CSE107;23;9.13353274243;1.00836047533;2;TRUE;1;[2];0;0;0;0
CSE107;24;9.51691385086;1.00885410644;3;TRUE;1;[3];0;0;0;0
CSE107;25;9.91691971583;NA;1;None;NA;[];0;0;0;0
CSE107;26;11.0668088923;NA;3;None;NA;[];0;0;0;0
CSE107;27;9.56689955499;NA;2;None;NA;[];0;0;0;0
CSE107;28;7.71687475104;1.00669409087;3;FALSE;0;[2];0;0;0;0
CSE107;29;4.8335031732;1.031444546;2;FALSE;0;[1];0;0;0;0
CSE107;30;10.1335053725;NA;2;None;NA;[];6;6;2;5
CSE107;31;10.5168801273;NA;2;None;NA;[1];0;0;0;0
CSE107;32;10.6835602345;1.01109871066;1;FALSE;0;[3];0;0;0;0
CSE107;33;5.95027430971;1.01542083562;3;FALSE;0;[1];0;0;0;0
CSE107;34;8.79775518134;NA;1;None;NA;[];0;0;0;0
CSE107;35;8.96689075753;NA;1;None;NA;[];0;0;0;0
CSE107;36;9.94799576743;1.00538553829;3;TRUE;1;[3];0;0;0;0
CSE107;37;8.08349669729;1.03196236523;2;FALSE;0;[3];0;0;0;0
CSE107;38;7.65006781375;1.00871498038;3;TRUE;1;[3];0;0;0;0
CSE107;39;7.58349009919;NA;1;None;NA;[];0;0;0;0
CSE107;40;9.33353714117;1.00597921085;1;FALSE;0;[3];0;0;0;0
CSE107;41;6.03346749461;0.924223826143;2;TRUE;1;[2, 1, 3];0;0;0;0
CSE107;42;8.35019904254;1.02503429938;3;FALSE;0;[2];0;0;0;0
CSE107;43;11.5168209888;1.02366184964;3;FALSE;0;[1];0;0;0;0
CSE107;44;8.51686497609;1.01273003889;1;TRUE;1;[1, 3, 2];0;0;0;0
CSE107;45;10.533363147;1.01651971183;2;FALSE;0;[3];6;6;2;5
CSE107;46;9.68606262325;1.01263965997;3;TRUE;1;[3];0;0;0;0
CSE107;47;8.5974717076;0.291437725682;2;FALSE;0;[3, 3, 3, 3, 3, 3, 3, 3, 3, 3, 3, 3, 3];0;0;0;0
CSE107;48;10.5835702538;NA;2;None;NA;[];0;0;0;0
CSE107;49;10.2669716453;0.334232002283;1;FALSE;0;[2, 2, 2, 2, 2, 2, 2, 2, 2, 2, 2, 2];0;0;0;0
CSE107;50;6.66685239083;0.571798052721;3;FALSE;0;[1, 1, 1, 1, 1, 1, 1, 1];0;0;0;0
CSE107;51;11.4167704034;0.557995673266;1;TRUE;1;[1, 2, 3, 3, 2, 1];0;0;0;0
CSE107;52;9.23357355289;NA;2;None;NA;[];0;0;0;0
CSE107;53;10.9835199128;NA;1;None;NA;[];0;0;0;0
CSE107;54;7.8669388992;NA;3;None;NA;[];0;0;0;0
CSE107;55;11.0002184703;NA;3;None;NA;[];0;0;0;0
CSE107;56;7.2167777346;NA;3;None;NA;[];0;0;0;0
CSE107;57;9.66677467992;NA;2;None;NA;[];0;0;0;0
CSE107;58;9.68356609948;NA;1;None;NA;[];0;0;0;0
CSE107;59;9.96518160646;NA;2;None;NA;[];0;0;0;0
CSE107;60;4.9667768793;NA;1;None;NA;[];6;6;2;5
CSE116;1;9.31691987073;1.02338367473;1;FALSE;0;[2, 2, 2, 2, 2];0;0;0;0
CSE116;2;10.2146537416;0.835445947164;1;FALSE;0;[2, 2, 2, 2, 2, 3, 3, 3, 3, 1, 1, 1, 2, 3];0;0;0;0
CSE116;3;7.76690432855;1.02569073483;3;TRUE;1;[3, 3, 1, 1, 1, 1];0;0;0;0
CSE116;4;7.83542045039;0.219617883479;3;FALSE;0;[1, 1, 1, 3, 2, 2];0;0;0;0
CSE116;5;5.53354571065;0.853464696163;2;FALSE;0;[1, 1, 1];0;0;0;0
CSE116;6;6.68353710868;0.82972705369;1;FALSE;0;[3, 3, 3];0;0;0;0
CSE116;7;10.0503053698;1.03933213207;2;TRUE;1;[2, 2];0;0;0;0
CSE116;8;6.88349321911;1.02634713452;2;TRUE;1;[2];0;0;0;0
CSE116;9;8.78364443775;0.599770671808;3;FALSE;0;[1, 1, 1, 3, 2, 1, 2, 3, 1, 2, 3, 1, 2, 3, 1, 2, 3, 1, 2, 3, 1, 2];0;0;0;0
CSE116;10;8.89883404267;NA;1;None;NA;[1, 2, 3, 2, 3, 1, 2, 1, 3, 1, 2, 3, 3, 2, 1, 2, 1, 3, 1, 3, 2, 1, 3, 2, 1, 2, 3, 1, 3, 2, 1, 2, 3, 1, 2, 3, 1, 2, 3];0;0;0;0
CSE116;11;5.4672167363;0.138236001461;1;FALSE;0;[2, 3, 1, 2, 3, 1, 2, 3, 1, 2, 2];0;0;0;0
CSE116;12;10.8663352303;0.274082643982;3;TRUE;1;[3, 3, 3, 3, 3, 3, 3, 3, 3, 3, 3, 3, 3, 3, 3, 3, 3, 3, 3, 3, 3];0;0;0;0
CSE116;13;9.45018533326;0.387639635831;2;FALSE;0;[1, 3, 1, 1, 1, 3, 1, 3, 1, 3, 1, 3, 1, 3];0;0;0;0
CSE116;14;6.53362782032;0.240256136588;3;TRUE;1;[3, 1, 2, 1, 1, 1, 2, 3, 3];0;0;0;0
CSE116;15;6.53367278514;0.481713726764;3;TRUE;1;[3, 1, 1, 1, 3, 1, 2, 1, 3, 1, 1];2;7;1;4
CSE116;16;4.53351149829;0.399940304456;2;FALSE;0;[1, 2, 1, 3, 1, 2, 1, 2, 1, 2, 1, 3];0;0;0;0
CSE116;17;11.3501777088;NA;2;None;NA;[];0;0;0;0
CSE116;18;9.43360211217;0.230848182122;1;FALSE;0;[3, 2, 2, 2, 3, 2, 3, 2, 3];0;0;0;0
CSE116;19;6.65079538856;0.275083323746;1;FALSE;0;[2, 3, 1, 2, 3, 1];0;0;0;0
CSE116;20;8.73362351934;1.023632864;3;FALSE;0;[2];0;0;0;0
CSE116;21;9.59881165801;NA;2;None;NA;[];0;0;0;0
CSE116;22;4.55016167785;NA;1;None;NA;[];0;0;0;0
CSE116;23;9.1502870906;NA;1;None;NA;[];0;0;0;0
CSE116;24;9.50061093505;NA;2;None;NA;[];0;0;0;0
CSE116;25;9.90017712229;NA;3;None;NA;[3];0;0;0;0
CSE116;26;11.0669311119;NA;3;None;NA;[];0;0;0;0
CSE116;27;9.5642693901;0.931268074143;2;FALSE;0;[1, 2, 3, 1, 2, 3, 1, 2];0;0;0;0
CSE116;28;7.71693668367;1.00179548635;2;FALSE;0;[1];0;0;0;0
CSE116;29;4.84793777651;1.01238551087;3;TRUE;1;[3];0;0;0;0
CSE116;30;10.1170751949;1.02086206896;1;FALSE;0;[2];2;5;2;4
CSE116;31;10.502801015;1.01003705932;1;TRUE;1;[1];0;0;0;0
CSE116;32;10.6835053401;1.02856689159;3;FALSE;0;[1];0;0;0;0
CSE116;33;5.95020292819;1.00087495126;1;TRUE;1;[1];0;0;0;0
CSE116;34;8.78598602963;1.01545153536;2;FALSE;0;[1];0;0;0;0
CSE116;35;8.98596120123;1.00728039565;2;FALSE;0;[1];0;0;0;0
CSE116;36;9.93372185544;1.01420462651;3;TRUE;1;[3];0;0;0;0
CSE116;37;8.08345763825;1.00610727706;2;FALSE;0;[1];0;0;0;0
CSE116;38;7.63352840897;1.02780397049;3;FALSE;0;[2];0;0;0;0
CSE116;39;7.58162776558;1.00326645998;1;FALSE;0;[3];0;0;0;0
CSE116;40;9.33355441036;0.438924756633;1;TRUE;1;[1, 2, 3];0;0;0;0
CSE116;41;6.03358676549;1.01323500133;3;TRUE;1;[3];0;0;0;0
CSE116;42;8.36688262814;1.01636577592;1;FALSE;0;[3];0;0;0;0
CSE116;43;11.5169468496;1.00701387765;3;FALSE;0;[2];0;0;0;0
CSE116;44;8.51921903928;1.03071346629;2;FALSE;0;[1];0;0;0;0
CSE116;45;10.5335911642;0.802698080128;2;FALSE;0;[1, 1, 1];2;6;2;4
CSE116;46;9.68350289632;1.04139248927;3;FALSE;0;[1];0;0;0;0
CSE116;47;8.61684303954;NA;3;None;NA;[];0;0;0;0
CSE116;48;10.5835128668;1.03654616207;1;FALSE;0;[2, 1, 3, 1];0;0;0;0
CSE116;49;10.2836718076;0.64969374225;2;TRUE;1;[2, 1, 3];0;0;0;0
CSE116;50;6.65018982974;1.02155353331;1;FALSE;0;[2, 1, 3];0;0;0;0
CSE116;51;11.4001644148;0.893750393874;1;FALSE;0;[3, 2];0;0;0;0
CSE116;52;9.21691371251;NA;2;None;NA;[1, 3, 2];0;0;0;0
CSE116;53;10.9694121925;0.519625004975;3;FALSE;0;[1, 2, 3, 3];0;0;0;0
CSE116;54;7.86718565192;NA;2;None;NA;[1, 3, 2];0;0;0;0
CSE116;55;10.9826499332;0.616056562518;2;FALSE;0;[1, 2, 3];0;0;0;0
CSE116;56;7.19821909988;0.664113479372;1;TRUE;1;[1, 3, 2, 1];0;0;0;0
CSE116;57;9.66689328284;0.634079353467;1;FALSE;0;[2, 1, 3, 2];0;0;0;0
CSE116;58;9.68376828651;0.707176772085;3;FALSE;0;[2, 1, 3, 2];0;0;0;0
CSE116;59;9.9502112369;0.476181919144;2;TRUE;1;[2, 1, 3, 2];0;0;0;0
CSE116;60;4.96980563468;0.52832058133;3;FALSE;0;[2, 1, 3, 3, 1, 2, 3, 1, 2, 3, 1, 2, 3];2;5;2;4
CSE12;1;10.016853507;NA;2;None;NA;[1, 1];0;0;0;0
CSE12;2;10.0335056497;0.967659999093;1;FALSE;0;[2, 2, 2, 1, 3, 2, 1];0;0;0;0
CSE12;3;10.016979604;0.986463130841;3;FALSE;0;[2, 1, 1, 2, 3, 1];0;0;0;0
CSE12;4;5.85012142951;0.657834356065;2;TRUE;1;[2, 1, 2, 3, 2];0;0;0;0
CSE12;5;10.0168784332;1.01674060609;1;FALSE;0;[2, 3, 1, 2, 2];0;0;0;0
CSE12;6;10.0169493017;0.700193487304;3;FALSE;0;[1, 2, 3, 1, 3, 2, 1];0;0;0;0
CSE12;7;6.38250613501;1.01801221675;3;FALSE;0;[1];0;0;0;0
CSE12;8;6.40033762731;1.04565784097;2;TRUE;1;[2, 1];0;0;0;0
CSE12;9;6.11718864169;0.651707704197;1;TRUE;1;[1, 2, 3, 2];0;0;0;0
CSE12;10;10.0335056497;NA;3;None;NA;[1];0;0;0;0
CSE12;11;10.0335677207;1.00046918218;1;FALSE;0;[2];0;0;0;0
CSE12;12;6.35267049617;1.00486966532;1;FALSE;0;[3];0;0;0;0
CSE12;13;6.06413012825;NA;1;None;NA;[];0;0;0;0
CSE12;14;6.05031907932;1.03285319767;2;FALSE;0;[1];0;0;0;0
CSE12;15;6.26688393157;0.496146404639;3;FALSE;0;[2, 2, 3, 1];6;5;2;5
CSE12;16;5.81677364552;0.923938548398;2;FALSE;0;[1, 2, 3];0;0;0;0
CSE12;17;9.51674036177;0.811477144391;2;FALSE;0;[3, 2, 1];0;0;0;0
CSE12;18;9.53351469152;1.00456288766;3;FALSE;0;[2, 1];0;0;0;0
CSE12;19;9.53624679442;0.572393779147;1;FALSE;0;[2, 2, 2, 2, 2];0;0;0;0
CSE12;20;9.5335083378;0.849867231181;3;TRUE;1;[3, 2];0;0;0;0
CSE12;21;5.66686428388;1.02460319963;2;FALSE;0;[1];0;0;0;0
CSE12;22;5.68350274164;NA;3;None;NA;[1];0;0;0;0
CSE12;23;5.93357959729;0.983096338168;1;TRUE;1;[1, 2, 3];0;0;0;0
CSE12;24;9.53364860856;1.00607282167;3;TRUE;1;[3];0;0;0;0
CSE12;25;9.53381624922;1.01719937292;1;TRUE;1;[1, 2];0;0;0;0
CSE12;26;9.55013262184;1.02383126198;2;TRUE;1;[2];0;0;0;0
CSE12;27;5.66696643228;1.03460249941;2;FALSE;0;[1];0;0;0;0
CSE12;28;5.91680380129;0.926275174054;2;TRUE;1;[2, 3, 1];0;0;0;0
CSE12;29;9.55027142636;1.00023068822;3;FALSE;0;[1];0;0;0;0
CSE12;30;5.80253298685;NA;1;None;NA;[];6;2;3;6
CSE12;31;9.03356038949;1.01315943927;2;TRUE;1;[2, 1];0;0;0;0
CSE12;32;9.0335735857;NA;3;None;NA;[];0;0;0;0
CSE12;33;9.03318014333;1.02153807636;1;FALSE;0;[2];0;0;0;0
CSE12;34;9.08211411002;1.04114727361;3;TRUE;1;[3];0;0;0;0
CSE12;35;9.03361952803;NA;2;None;NA;[];0;0;0;0
CSE12;36;9.03365178542;NA;1;None;NA;[2, 3];0;0;0;0
CSE12;37;9.06698881695;NA;3;None;NA;[1];0;0;0;0
CSE12;38;9.03364494295;0.305915452051;3;FALSE;0;[2, 3, 2];0;0;0;0
CSE12;39;5.16706882505;1.00495012741;1;TRUE;1;[1, 2];0;0;0;0
CSE12;40;5.05027167073;1.01669869383;1;FALSE;0;[3, 1];0;0;0;0
CSE12;41;9.03358140567;0.966371249615;1;FALSE;0;[2, 1];0;0;0;0
CSE12;42;9.05015339365;NA;3;None;NA;[2, 3];0;0;0;0
CSE12;43;5.06693554339;1.0169907681;2;FALSE;0;[1, 2, 3];0;0;0;0
CSE12;44;9.01728311673;0.920885373446;2;FALSE;0;[1, 2];0;0;0;0
CSE12;45;5.31690536318;0.717916705748;2;FALSE;0;[1, 2];7;1;2;7
CSE12;46;4.3337671789;1.0143697765;1;TRUE;1;[1];0;0;0;0
CSE12;47;8.51943483104;0.374571839367;2;TRUE;1;[2, 2, 2];0;0;0;0
CSE12;48;8.53357383007;0.519810585745;3;FALSE;0;[2, 2, 2];0;0;0;0
CSE12;49;8.51700135335;0.525626008128;2;TRUE;1;[2, 2, 2, 2];0;0;0;0
CSE12;50;8.51688063252;NA;3;None;NA;[];0;0;0;0
CSE12;51;8.51686401508;NA;3;None;NA;[];0;0;0;0
CSE12;52;8.55033349739;NA;2;None;NA;[];0;0;0;0
CSE12;53;4.80030918217;0.512065955731;1;TRUE;1;[1, 1, 1, 1];0;0;0;0
CSE12;54;4.36715504024;0.647015093552;1;TRUE;1;[1, 1];0;0;0;0
CSE12;55;8.56863272179;0.675897218824;3;FALSE;0;[1, 1, 1];0;0;0;0
CSE12;56;4.79995239592;0.642531099769;3;FALSE;0;[1, 1, 1, 1];0;0;0;0
CSE12;57;4.7002062029;0.541379609134;2;FALSE;0;[1, 1, 1];0;0;0;0
CSE12;58;8.533735117;0.504686466204;1;FALSE;0;[3, 3, 3];0;0;0;0
CSE12;59;8.53362026116;0.482463970444;1;FALSE;0;[3, 3, 3, 3, 3];0;0;0;0
CSE12;60;8.51692755236;0.492204512467;2;FALSE;0;[3, 3, 3, 3];5;3;3;5
CSE120;1;9.33385515282;1.0335325245;2;FALSE;0;[1];0;0;0;0
CSE120;2;10.2335876124;1.00470260355;2;FALSE;0;[1, 3, 2];0;0;0;0
CSE120;3;7.75050072188;NA;3;None;NA;[3];0;0;0;0
CSE120;4;7.83411858775;1.01764750684;1;FALSE;0;[2];0;0;0;0
CSE120;5;5.55005361561;1.02573332019;3;FALSE;0;[1];0;0;0;0
CSE120;6;6.68349000951;1.0223541679;2;FALSE;0;[1];0;0;0;0
CSE120;7;10.0490986029;NA;1;None;NA;[2, 1];0;0;0;0
CSE120;8;6.85015146287;NA;3;None;NA;[2, 3, 1];0;0;0;0
CSE120;9;8.80018777681;0.596259726814;1;FALSE;0;[2, 3];0;0;0;0
CSE120;10;8.91681174324;0.94523408118;3;FALSE;0;[2, 3];0;0;0;0
CSE120;11;5.45001627529;NA;1;None;NA;[2, 3];0;0;0;0
CSE120;12;10.8667869637;0.808049019924;3;FALSE;0;[1, 2, 3];0;0;0;0
CSE120;13;9.44731301251;NA;1;None;NA;[2, 3, 1];0;0;0;0
CSE120;14;6.56698676374;1.01493660874;2;FALSE;0;[1];0;0;0;0
CSE120;15;6.53060244002;1.01060923278;1;FALSE;0;[2];5;6;1;5
CSE120;16;4.55013132647;NA;2;None;NA;[1];0;0;0;0
CSE120;17;11.3499945749;1.00786253121;2;FALSE;0;[3];0;0;0;0
CSE120;18;9.41693832885;1.01474760322;3;FALSE;0;[2];0;0;0;0
CSE120;19;6.66683007127;1.01607105523;3;FALSE;0;[2];0;0;0;0
CSE120;20;8.73396688051;NA;1;None;NA;[];0;0;0;0
CSE120;21;9.58354846372;1.0281472115;3;FALSE;0;[2];0;0;0;0
CSE120;22;4.55039720514;1.01401979746;2;FALSE;0;[1, 2];0;0;0;0
CSE120;23;9.13362798295;1.01744389364;2;TRUE;1;[2];0;0;0;0
CSE120;24;9.56742908029;1.02366464215;3;TRUE;1;[3];0;0;0;0
CSE120;25;9.91679854705;1.0025390888;2;FALSE;0;[1, 2];0;0;0;0
CSE120;26;11.0834531579;1.01355160465;1;FALSE;0;[2, 1];0;0;0;0
CSE120;27;9.58519358802;1.03526198745;1;FALSE;0;[3];0;0;0;0
CSE120;28;7.73346591426;1.03221946403;2;TRUE;1;[2];0;0;0;0
CSE120;29;4.8333566303;1.01878323031;3;FALSE;0;[1];0;0;0;0
CSE120;30;10.1167935618;1.00284132568;2;FALSE;0;[3];6;6;1;6
CSE120;31;10.516855926;1.02706991178;1;TRUE;1;[1];0;0;0;0
CSE120;32;10.6668701486;1.00933498356;3;FALSE;0;[1];0;0;0;0
CSE120;33;5.93340472306;NA;1;None;NA;[3];0;0;0;0
CSE120;34;8.7870649047;1.01684766083;2;FALSE;0;[1];0;0;0;0
CSE120;35;8.98346566988;1.00511884574;1;FALSE;0;[2];0;0;0;0
CSE120;36;9.93356209978;1.01198898943;3;FALSE;0;[2];0;0;0;0
CSE120;37;8.0833211961;NA;3;None;NA;[3];0;0;0;0
CSE120;38;7.65014471815;NA;3;None;NA;[3];0;0;0;0
CSE120;39;7.58338766577;1.02195516892;1;FALSE;0;[2];0;0;0;0
CSE120;40;9.31674752181;1.04498510485;2;FALSE;0;[1];0;0;0;0
CSE120;41;6.0501254615;1.02357952345;3;TRUE;1;[3];0;0;0;0
CSE120;42;8.36680211491;1.02244566548;2;FALSE;0;[1];0;0;0;0
CSE120;43;11.5000625597;1.04038507249;1;FALSE;0;[2];0;0;0;0
CSE120;44;8.50021358269;1.00135567122;2;FALSE;0;[1];0;0;0;0
CSE120;45;10.550174825;1.00006625314;1;FALSE;0;[3];6;5;2;6
CSE120;46;9.68353937301;1.02371538219;2;FALSE;0;[1];0;0;0;0
CSE120;47;8.63353463216;1.03445585167;1;FALSE;0;[3];0;0;0;0
CSE120;48;10.5835450425;1.03823369485;3;TRUE;1;[3];0;0;0;0
CSE120;49;10.2859060842;1.00119129827;3;FALSE;0;[2];0;0;0;0
CSE120;50;6.66686965982;1.00765713584;3;FALSE;0;[2];0;0;0;0
CSE120;51;11.4001635349;1.04153224496;2;FALSE;0;[1];0;0;0;0
CSE120;52;9.25287359131;1.02723899595;2;FALSE;0;[1];0;0;0;0
CSE120;53;10.9669000599;1.01889338166;1;FALSE;0;[3];0;0;0;0
CSE120;54;7.85012067177;1.01883007687;1;FALSE;0;[2];0;0;0;0
CSE120;55;10.9977615362;1.03112632865;2;FALSE;0;[1];0;0;0;0
CSE120;56;7.18354817047;1.02669890437;3;TRUE;1;[3];0;0;0;0
CSE120;57;9.68347583583;1.01770098675;1;FALSE;0;[2];0;0;0;0
CSE120;58;9.66679732518;1.01362812561;1;FALSE;0;[2];0;0;0;0
CSE120;59;9.95265013592;1.01307188214;2;FALSE;0;[1];0;0;0;0
CSE120;60;4.95228015402;1.00412833642;3;FALSE;0;[2];6;5;2;5
CSE14;1;10.0001373381;1.04863771367;1;FALSE;0;[2];0;0;0;0
CSE14;2;10.0335534978;0.967750417181;1;FALSE;0;[3, 3];0;0;0;0
CSE14;3;10.0334752982;NA;3;None;NA;[];0;0;0;0
CSE14;4;5.85012946923;0.849038610773;2;FALSE;0;[1, 1, 1];0;0;0;0
CSE14;5;10.0334034523;1.00044622634;2;FALSE;0;[1];0;0;0;0
CSE14;6;10.0168026525;1.01689988072;3;TRUE;1;[3];0;0;0;0
CSE14;7;6.36683241726;NA;1;None;NA;[];0;0;0;0
CSE14;8;6.40021729717;NA;3;None;NA;[];0;0;0;0
CSE14;9;6.11819431235;1.02697060969;2;FALSE;0;[1, 1];0;0;0;0
CSE14;10;10.0167425366;1.03369617994;1;FALSE;0;[3];0;0;0;0
CSE14;11;10.0502627996;1.01711440879;3;TRUE;1;[3];0;0;0;0
CSE14;12;6.36690035317;1.0153285491;1;FALSE;0;[3];0;0;0;0
CSE14;13;6.05021978978;1.02508633292;3;TRUE;1;[3];0;0;0;0
CSE14;14;6.05010346786;1.02001471083;1;FALSE;0;[3];0;0;0;0
CSE14;15;6.28094725143;1.02759323323;3;FALSE;0;[2];7;7;1;7
CSE14;16;5.81664977229;1.02256969989;2;FALSE;0;[1];0;0;0;0
CSE14;17;9.53342202473;1.02291585788;2;FALSE;0;[1];0;0;0;0
CSE14;18;9.53347920819;1.03796940146;2;FALSE;0;[1];0;0;0;0
CSE14;19;9.54978187196;1.03654597215;3;FALSE;0;[1];0;0;0;0
CSE14;20;9.5334968031;1.00643949057;1;FALSE;0;[2];0;0;0;0
CSE14;21;5.66731881884;1.01237614851;3;FALSE;0;[1];0;0;0;0
CSE14;22;5.68377837057;1.02450911041;2;TRUE;1;[2];0;0;0;0
CSE14;23;5.93346630525;1.01501237161;3;FALSE;0;[1];0;0;0;0
CSE14;24;9.53361703501;NA;1;None;NA;[];0;0;0;0
CSE14;25;9.55009955788;NA;1;None;NA;[];0;0;0;0
CSE14;26;9.56531671331;1.02184404802;2;FALSE;0;[3];0;0;0;0
CSE14;27;5.65022438401;NA;2;None;NA;[2];0;0;0;0
CSE14;28;5.95182024255;1.03651233347;2;TRUE;1;[2];0;0;0;0
CSE14;29;9.56726437236;NA;1;None;NA;[];0;0;0;0
CSE14;30;5.78345745893;1.02193233453;3;FALSE;0;[1];7;6;1;7
CSE14;31;9.01681633746;1.05201625827;2;TRUE;1;[2];0;0;0;0
CSE14;32;9.03348507316;1.02581407128;1;FALSE;0;[2];0;0;0;0
CSE14;33;9.03339172238;1.00476353532;2;FALSE;0;[3];0;0;0;0
CSE14;34;9.05023787344;NA;1;None;NA;[];0;0;0;0
CSE14;35;9.05021050357;1.03127161819;3;FALSE;0;[1];0;0;0;0
CSE14;36;9.01686227974;1.01567362937;3;FALSE;0;[1];0;0;0;0
CSE14;37;9.06924184501;1.01704431929;2;FALSE;0;[1];0;0;0;0
CSE14;38;9.03069579081;1.00732416865;1;FALSE;0;[2];0;0;0;0
CSE14;39;5.18349978446;1.01983476589;1;FALSE;0;[3];0;0;0;0
CSE14;40;5.016809495;1.01322259169;2;FALSE;0;[3];0;0;0;0
CSE14;41;9.01685739226;1.01168577238;3;TRUE;1;[3];0;0;0;0
CSE14;42;9.03336875124;1.05757100617;1;FALSE;0;[3];0;0;0;0
CSE14;43;5.06687044182;1.0203040357;2;FALSE;0;[3];0;0;0;0
CSE14;44;9.06813238803;1.01196039302;3;TRUE;1;[3];0;0;0;0
CSE14;45;5.31683598512;1.01895269289;3;TRUE;1;[3];7;6;1;7
CSE14;46;4.35014950788;1.02623959694;3;FALSE;0;[2];0;0;0;0
CSE14;47;8.53347578696;1.05404237533;1;FALSE;0;[2];0;0;0;0
CSE14;48;8.56675754114;NA;1;None;NA;[];0;0;0;0
CSE14;49;8.51785052731;NA;1;None;NA;[];0;0;0;0
CSE14;50;8.53356229527;1.01684050819;3;TRUE;1;[3];0;0;0;0
CSE14;51;8.51682708991;1.04461523653;2;FALSE;0;[1];0;0;0;0
CSE14;52;8.55018313371;1.01204776494;3;TRUE;1;[3];0;0;0;0
CSE14;53;4.78347798632;1.01800825526;2;FALSE;0;[3];0;0;0;0
CSE14;54;4.38077345279;NA;2;None;NA;[];0;0;0;0
CSE14;55;8.53353541416;NA;3;None;NA;[];0;0;0;0
CSE14;56;4.81678808785;NA;2;None;NA;[];0;0;0;0
CSE14;57;4.70012404413;NA;2;None;NA;[];0;0;0;0
CSE14;58;8.53353248167;NA;3;None;NA;[];0;0;0;0
CSE14;59;8.53593956343;1.04915539542;1;FALSE;0;[2];0;0;0;0
CSE14;60;8.53355887404;1.01804696744;1;FALSE;0;[2];7;6;1;7
CSE15;1;10.016702948;0.899939199564;2;TRUE;1;[2, 1, 1, 2];0;0;0;0
CSE15;2;10.0800993722;0.915265771186;2;FALSE;0;[1, 1, 1];0;0;0;0
CSE15;3;10.0339342322;0.650100210085;1;TRUE;1;[1, 1, 3, 2, 1, 2];0;0;0;0
CSE15;4;5.83345095858;0.0610935076693;3;FALSE;0;[2, 1, 2, 2, 1];0;0;0;0
CSE15;5;10.0168715659;0.583770354926;1;TRUE;1;[1, 2, 3, 1, 2, 2];0;0;0;0
CSE15;6;10.0497393509;0.716511717405;3;FALSE;0;[1, 3, 2, 1];0;0;0;0
CSE15;7;6.38624791427;0.620705933261;3;TRUE;1;[3, 1, 3, 2, 1];0;0;0;0
CSE15;8;6.40012932261;0.455850232555;1;FALSE;0;[3, 2, 2, 2];0;0;0;0
CSE15;9;6.11724076585;0.636952972367;2;FALSE;0;[3, 1, 1, 3];0;0;0;0
CSE15;10;10.0335158643;0.55076715488;3;FALSE;0;[2, 3, 2, 1, 3, 3, 3];0;0;0;0
CSE15;11;10.0500922267;0.834879991777;1;FALSE;0;[2, 3, 1, 1, 3, 2, 3];0;0;0;0
CSE15;12;6.3835529602;1.01897890411;1;FALSE;0;[3, 2, 1];0;0;0;0
CSE15;13;6.06663144426;0.957131539362;1;FALSE;0;[3, 2, 1];0;0;0;0
CSE15;14;6.05002184702;0.906442265982;2;TRUE;1;[2, 1];0;0;0;0
CSE15;15;6.26657416304;0.913872556153;3;FALSE;0;[1, 2, 1];3;6;1;2
CSE15;16;5.81692102719;1.00087739699;2;FALSE;0;[1];0;0;0;0
CSE15;17;9.53348262942;1.00675941255;3;TRUE;1;[3];0;0;0;0
CSE15;18;9.53332476396;0.961054414474;2;TRUE;1;[2, 1];0;0;0;0
CSE15;19;9.55013621394;NA;3;None;NA;[1];0;0;0;0
CSE15;20;9.54997346101;1.05250491723;1;FALSE;0;[2];0;0;0;0
CSE15;21;5.66701628409;NA;2;None;NA;[];0;0;0;0
CSE15;22;5.70012551038;0.802478569431;3;FALSE;0;[1, 2, 3, 1, 2, 1, 3, 1];0;0;0;0
CSE15;23;5.91677655341;0.501519625168;1;FALSE;0;[2, 1, 3, 3, 2, 1];0;0;0;0
CSE15;24;9.51985536982;0.630966749953;3;FALSE;0;[2, 3, 1];0;0;0;0
CSE15;25;9.54811377652;0.24367286307;1;FALSE;0;[3, 3, 3, 1, 2, 3, 1, 2];0;0;0;0
CSE15;26;9.55010640034;1.0234769487;2;TRUE;1;[2, 1, 3, 2];0;0;0;0
CSE15;27;5.6501144158;1.01769730773;2;FALSE;0;[3];0;0;0;0
CSE15;28;5.90003841556;1.01104181276;2;FALSE;0;[3];0;0;0;0
CSE15;29;9.5667335925;1.0095210134;3;FALSE;0;[1];0;0;0;0
CSE15;30;5.78346821137;1.01565978047;1;FALSE;0;[2, 1, 3];4;1;1;4
CSE15;31;9.03336777374;1.02007174791;2;FALSE;0;[3];0;0;0;0
CSE15;32;9.03348507316;1.013864587;2;FALSE;0;[3];0;0;0;0
CSE15;33;9.0169091995;1.02248071845;3;FALSE;0;[1];0;0;0;0
CSE15;34;9.06687386305;1.01903159647;1;FALSE;0;[2];0;0;0;0
CSE15;35;9.05066503881;1.01261327107;1;FALSE;0;[2];0;0;0;0
CSE15;36;9.03352417296;1.03260498661;3;FALSE;0;[1];0;0;0;0
CSE15;37;9.08468089183;1.02837889223;2;FALSE;0;[3];0;0;0;0
CSE15;38;9.03330374781;1.03002992574;1;TRUE;1;[1, 2, 2];0;0;0;0
CSE15;39;5.16679048272;NA;3;None;NA;[2];0;0;0;0
CSE15;40;5.03362094498;0.795043352961;2;FALSE;0;[1, 2, 1, 3];0;0;0;0
CSE15;41;9.03348311817;1.04586969558;1;TRUE;1;[1];0;0;0;0
CSE15;42;9.06672626128;1.02156171081;2;TRUE;1;[2];0;0;0;0
CSE15;43;5.06713876424;0.849018836396;3;TRUE;1;[3, 1, 2];0;0;0;0
CSE15;44;9.03380422532;1.02736397925;1;TRUE;1;[1];0;0;0;0
CSE15;45;5.31684478257;1.02060263149;3;TRUE;1;[3];5;1;1;5
CSE15;46;4.3504774575;1.02631299042;3;TRUE;1;[3];0;0;0;0
CSE15;47;8.55282334806;1.02671793065;3;TRUE;1;[3];0;0;0;0
CSE15;48;8.53341420476;1.0261393903;2;FALSE;0;[1];0;0;0;0
CSE15;49;8.51678994509;1.02447197878;2;FALSE;0;[1, 2];0;0;0;0
CSE15;50;8.51679092259;1.01180855609;2;TRUE;1;[2];0;0;0;0
CSE15;51;8.54830732056;1.00999039862;3;FALSE;0;[1];0;0;0;0
CSE15;52;8.55023396345;1.01967770777;1;FALSE;0;[3];0;0;0;0
CSE15;53;4.78355814092;1.01383419198;1;TRUE;1;[1];0;0;0;0
CSE15;54;4.36407294851;NA;1;None;NA;[1];0;0;0;0
CSE15;55;8.55016993752;1.01970861162;2;TRUE;1;[2];0;0;0;0
CSE15;56;4.80006998865;1.01955003033;1;TRUE;1;[1];0;0;0;0
CSE15;57;4.70109714054;1.02475033905;2;TRUE;1;[2];0;0;0;0
CSE15;58;8.55035077412;1.01941399935;3;TRUE;1;[3, 2, 1];0;0;0;0
CSE15;59;8.55037179027;1.01973998587;1;TRUE;1;[1];0;0;0;0
CSE15;60;8.53344695085;1.02700575488;3;TRUE;1;[3];4;2;1;4
CSE27;1;10.0336380512;0.199970088408;1;FALSE;0;[3, 3, 1, 2, 2, 1, 3, 3, 1, 2, 1];0;0;0;0
CSE27;2;10.0482169023;0.815017291923;1;TRUE;1;[1, 1, 2, 1, 3, 1, 1, 2, 2, 2, 2];0;0;0;0
CSE27;3;10.0334327772;1.01705872421;3;TRUE;1;[3, 2, 1, 3, 3, 1, 2, 2, 1];0;0;0;0
CSE27;4;5.83357021298;0.113220466567;3;FALSE;0;[2, 1, 3, 1, 2];0;0;0;0
CSE27;5;10.0334586808;0.783211618713;1;FALSE;0;[2, 2, 2, 2, 2, 2, 1, 1, 1, 3, 3, 3, 3, 1, 1, 1];0;0;0;0
CSE27;6;10.0335618065;0.616935754795;3;TRUE;1;[3, 3, 2, 2, 3, 3, 2, 2, 3, 2, 3, 2, 2];0;0;0;0
CSE27;7;6.38383203506;0.179263330501;2;TRUE;1;[2, 2, 2, 1, 1, 1, 1, 1, 1];0;0;0;0
CSE27;8;6.38387211236;0.889799549816;2;TRUE;1;[2, 1, 1, 1, 1];0;0;0;0
CSE27;9;6.11844846108;0.182540440526;2;FALSE;0;[1, 1, 2, 1, 1, 1, 1, 1, 1, 1, 1, 1, 1, 1, 1, 1, 1, 1, 1];0;0;0;0
CSE27;10;10.0167703952;0.583719004448;1;TRUE;1;[1, 3, 2, 1, 3, 2, 2, 1, 3];0;0;0;0
CSE27;11;10.033218217;0.450083657772;2;TRUE;1;[2, 1, 1, 1, 1, 1, 1, 1, 1, 1, 1, 1, 1];0;0;0;0
CSE27;12;6.36671120786;0.371557686173;3;TRUE;1;[3, 1, 1, 2, 1, 3, 2, 1, 3];0;0;0;0
CSE27;13;6.0670551884;0.591687509084;1;FALSE;0;[2, 1, 3, 2, 1, 3, 2];0;0;0;0
CSE27;14;6.03363462992;0.215888063464;2;FALSE;0;[1, 2, 1, 1, 1, 1, 1, 1, 1, 1];0;0;0;0
CSE27;15;6.27947514377;0.511797891739;3;FALSE;0;[1, 2, 2, 1, 3, 3, 2, 3];7;7;1;5
CSE27;16;5.81705347778;0.165471257962;1;FALSE;0;[2, 1, 3, 2, 1, 3, 2, 3, 2];0;0;0;0
CSE27;17;9.55027941698;0.87800701464;2;FALSE;0;[1, 1, 1, 1, 1];0;0;0;0
CSE27;18;9.53349680311;0.0887497410927;3;FALSE;0;[2, 1, 3, 1, 2, 3, 2, 1, 3, 2, 1, 3, 2, 1, 3, 1, 2, 3, 3, 2, 1];0;0;0;0
CSE27;19;9.58542183314;0.285701223102;1;FALSE;0;[3, 1, 2, 2, 1, 3, 3, 1, 2, 1, 2, 1, 2, 1];0;0;0;0
CSE27;20;9.53346650075;0.529143546267;3;TRUE;1;[3, 2, 3, 2, 1, 3, 2, 1, 3];0;0;0;0
CSE27;21;5.70054827702;0.361462741071;3;TRUE;1;[3, 1, 2, 1, 3, 2, 1, 3, 2, 1, 3, 2, 1, 3];0;0;0;0
CSE27;22;5.68407797283;0.138643396836;1;TRUE;1;[1, 2, 3, 1, 2, 2, 1, 3, 2, 1, 2, 1, 3];0;0;0;0
CSE27;23;5.93342036298;0.749056202245;2;FALSE;0;[3, 2, 3, 2, 3, 2, 3, 2, 3, 2, 3, 2, 3, 2, 3, 2, 3, 2, 3, 2, 3];0;0;0;0
CSE27;24;9.53110047379;NA;2;None;NA;[];0;0;0;0
CSE27;25;9.53347871944;NA;1;None;NA;[];0;0;0;0
CSE27;26;9.51679141134;NA;3;None;NA;[];0;0;0;0
CSE27;27;5.66678852772;NA;2;None;NA;[];0;0;0;0
CSE27;28;5.91678290713;NA;2;None;NA;[];0;0;0;0
CSE27;29;9.56666565659;NA;2;None;NA;[];0;0;0;0
CSE27;30;5.80015405324;NA;1;None;NA;[];7;7;1;7
CSE27;31;9.01691506447;NA;2;None;NA;[];0;0;0;0
CSE27;32;9.0334968031;0.0936196047322;3;FALSE;0;[2, 3, 2, 1, 2, 1, 1, 3, 1, 2];0;0;0;0
CSE27;33;9.04787673396;0.53440881484;3;FALSE;0;[2, 2, 1, 3, 3, 2];0;0;0;0
CSE27;34;9.05016505006;NA;1;None;NA;[];0;0;0;0
CSE27;35;9.03353883539;NA;3;None;NA;[];0;0;0;0
CSE27;36;9.01704800381;NA;1;None;NA;[];0;0;0;0
CSE27;37;9.06444038892;NA;3;None;NA;[];0;0;0;0
CSE27;38;9.04875354709;NA;2;None;NA;[];0;0;0;0
CSE27;39;5.1834817008;NA;2;None;NA;[];0;0;0;0
CSE27;40;5.01682708991;NA;3;None;NA;[];0;0;0;0
CSE27;41;9.01690626701;NA;3;None;NA;[];0;0;0;0
CSE27;42;9.03367568471;NA;1;None;NA;[];0;0;0;0
CSE27;43;5.08342334434;NA;1;None;NA;[];0;0;0;0
CSE27;44;9.03204375659;NA;1;None;NA;[];0;0;0;0
CSE27;45;5.31676267298;NA;2;None;NA;[];7;7;1;7
CSE27;46;4.35015977158;NA;3;None;NA;[];0;0;0;0
CSE27;47;8.51702258893;0.482064312473;2;TRUE;1;[2, 3, 1, 1, 1, 1, 1, 1, 1, 1, 1, 1, 1, 1, 1, 1, 1];0;0;0;0
CSE27;48;8.55019681865;0.340112380428;2;FALSE;0;[1, 3, 2, 1, 2, 3];0;0;0;0
CSE27;49;8.51681731496;NA;3;None;NA;[];0;0;0;0
CSE27;50;8.55014745514;NA;3;None;NA;[];0;0;0;0
CSE27;51;8.53357744645;NA;1;None;NA;[];0;0;0;0
CSE27;52;8.55013719144;NA;2;None;NA;[];0;0;0;0
CSE27;53;4.78362998681;NA;1;None;NA;[];0;0;0;0
CSE27;54;4.41937766795;NA;1;None;NA;[];0;0;0;0
CSE27;55;8.5332861529;NA;1;None;NA;[];0;0;0;0
CSE27;56;4.80020879296;NA;2;None;NA;[];0;0;0;0
CSE27;57;4.69967293013;NA;3;None;NA;[];0;0;0;0
CSE27;58;8.55017775749;NA;2;None;NA;[];0;0;0;0
CSE27;59;8.5358056466;NA;1;None;NA;[];0;0;0;0
CSE27;60;8.54994120367;NA;3;None;NA;[];7;7;1;7
CSE28;1;10.0710718201;NA;3;None;NA;[];0;0;0;0
CSE28;2;10.034701128;1.01495372655;1;FALSE;0;[3, 2];0;0;0;0
CSE28;3;10.0336092643;1.01720197651;2;FALSE;0;[1, 3, 2];0;0;0;0
CSE28;4;5.83456408296;1.00855481528;3;TRUE;1;[3];0;0;0;0
CSE28;5;10.0168559507;1.01690678051;2;FALSE;0;[1];0;0;0;0
CSE28;6;10.0311958253;1.01460770049;2;FALSE;0;[3];0;0;0;0
CSE28;7;6.36693070478;NA;1;None;NA;[2];0;0;0;0
CSE28;8;6.40027897752;NA;3;None;NA;[];0;0;0;0
CSE28;9;6.15297576835;1.00774736727;1;FALSE;0;[2, 3];0;0;0;0
CSE28;10;10.0170431413;1.01726160376;2;TRUE;1;[2, 3, 2];0;0;0;0
CSE28;11;10.0335564795;NA;1;None;NA;[];0;0;0;0
CSE28;12;6.38031703146;1.02908339371;1;FALSE;0;[3];0;0;0;0
CSE28;13;6.05026678325;NA;2;None;NA;[];0;0;0;0
CSE28;14;6.05033862925;1.03103474383;3;TRUE;1;[3, 1];0;0;0;0
CSE28;15;6.28700814206;1.01626840715;2;TRUE;1;[2];5;6;2;3
CSE28;16;5.81699895848;1.00248406182;3;TRUE;1;[3, 1];0;0;0;0
CSE28;17;9.56871141027;NA;1;None;NA;[];0;0;0;0
CSE28;18;9.53372045455;NA;3;None;NA;[];0;0;0;0
CSE28;19;9.5502303715;1.01429929777;2;FALSE;0;[3, 1];0;0;0;0
CSE28;20;9.53357138633;NA;3;None;NA;[];0;0;0;0
CSE28;21;5.68351105036;NA;3;None;NA;[];0;0;0;0
CSE28;22;5.71673469228;NA;3;None;NA;[];0;0;0;0
CSE28;23;5.91681064376;1.00753400468;1;TRUE;1;[1];0;0;0;0
CSE28;24;9.56748025335;1.05977069591;1;FALSE;0;[2];0;0;0;0
CSE28;25;9.55020251285;1.03310006456;1;FALSE;0;[3];0;0;0;0
CSE28;26;9.54849336011;1.03025683824;2;TRUE;1;[2];0;0;0;0
CSE28;27;5.65028936342;1.00868126893;2;FALSE;0;[1];0;0;0;0
CSE28;28;5.90401668;1.03124790423;1;FALSE;0;[2];0;0;0;0
CSE28;29;9.60018875459;1.07544508904;3;FALSE;0;[1];0;0;0;0
CSE28;30;5.78350112876;1.01397637956;3;FALSE;0;[2];5;6;2;5
CSE28;31;9.03349782971;1.01261784222;2;FALSE;0;[1];0;0;0;0
CSE28;32;9.03355208077;1.03001138309;2;TRUE;1;[2];0;0;0;0
CSE28;33;9.06958798031;1.02536676442;1;FALSE;0;[2];0;0;0;0
CSE28;34;9.04729372745;1.02742040119;3;FALSE;0;[2];0;0;0;0
CSE28;35;9.03353692958;1.02740568625;2;TRUE;1;[2];0;0;0;0
CSE28;36;9.02381426001;1.00033114042;1;FALSE;0;[3];0;0;0;0
CSE28;37;9.08697177919;1.01665988171;3;FALSE;0;[2];0;0;0;0
CSE28;38;9.0302017113;NA;2;None;NA;[];0;0;0;0
CSE28;39;5.18358753946;1.01998465233;1;FALSE;0;[2];0;0;0;0
CSE28;40;5.0174893685;1.02703666554;2;TRUE;1;[2];0;0;0;0
CSE28;41;9.0335291096;1.02278340081;2;TRUE;1;[2];0;0;0;0
CSE28;42;9.04329381152;NA;3;None;NA;[];0;0;0;0
CSE28;43;5.08362092097;1.01840790269;1;FALSE;0;[2];0;0;0;0
CSE28;44;9.03357847318;1.0067824947;3;FALSE;0;[1];0;0;0;0
CSE28;45;5.31686381958;1.01603139815;1;TRUE;1;[1];5;5;5;5
CSE28;46;4.33357949955;1.00311385084;2;TRUE;1;[2];0;0;0;0
CSE28;47;8.5147970986;1.03152537965;1;FALSE;0;[2];0;0;0;0
CSE28;48;8.55170248133;1.02518873445;1;FALSE;0;[2];0;0;0;0
CSE28;49;8.51677408539;1.00746625733;2;TRUE;1;[2];0;0;0;0
CSE28;50;8.55735974268;1.0193908227;1;FALSE;0;[2];0;0;0;0
CSE28;51;8.53352739898;0.41800234606;3;FALSE;0;[2, 1];0;0;0;0
CSE28;52;8.55431630714;1.01686857214;2;TRUE;1;[2];0;0;0;0
CSE28;53;4.80020654502;1.02413263628;3;FALSE;0;[2];0;0;0;0
CSE28;54;4.36679678775;1.01211417013;3;FALSE;0;[2];0;0;0;0
CSE28;55;8.58604633432;1.03380573649;3;FALSE;0;[2];0;0;0;0
CSE28;56;4.81685428899;1.01200173836;1;FALSE;0;[2];0;0;0;0
CSE28;57;4.71691748414;1.01794039492;2;TRUE;1;[2];0;0;0;0
CSE28;58;8.55018540666;1.00716038356;1;FALSE;0;[2];0;0;0;0
CSE28;59;8.53350345032;1.01954432118;2;TRUE;1;[2];0;0;0;0
CSE28;60;8.5360097515;1.01088212813;3;FALSE;0;[2];5;3;5;5
CSE30;1;10.0172063832;1.00110212731;3;FALSE;0;[2];0;0;0;0
CSE30;2;10.0504393114;1.01767654322;2;FALSE;0;[1];0;0;0;0
CSE30;3;10.0168857644;1.00042471425;2;TRUE;1;[2];0;0;0;0
CSE30;4;5.83352549287;NA;3;None;NA;[];0;0;0;0
CSE30;5;10.0335701645;1.01674989231;1;FALSE;0;[3, 2];0;0;0;0
CSE30;6;10.0501504612;NA;1;None;NA;[];0;0;0;0
CSE30;7;6.36638135171;NA;1;None;NA;[2];0;0;0;0
CSE30;8;6.39995933614;NA;2;None;NA;[3];0;0;0;0
CSE30;9;6.11700389484;NA;3;None;NA;[2];0;0;0;0
CSE30;10;10.0336864865;1.00226876148;1;TRUE;1;[1];0;0;0;0
CSE30;11;10.0477775883;NA;2;None;NA;[3, 2];0;0;0;0
CSE30;12;6.38357551625;NA;3;None;NA;[3];0;0;0;0
CSE30;13;6.06836024463;NA;3;None;NA;[];0;0;0;0
CSE30;14;6.03100081474;NA;2;None;NA;[2, 3, 1, 3, 1, 2, 1];0;0;0;0
CSE30;15;6.26692938516;NA;1;None;NA;[3, 1];1;5;2;2
CSE30;16;5.83350643168;NA;3;None;NA;[1, 3, 2];0;0;0;0
CSE30;17;9.54753883472;0.744594410562;1;TRUE;1;[1, 2, 3];0;0;0;0
CSE30;18;9.51692461986;1.02240998999;2;FALSE;0;[1, 2, 3];0;0;0;0
CSE30;19;9.56690890661;NA;3;None;NA;[];0;0;0;0
CSE30;20;9.55018394042;0.815033726166;2;FALSE;0;[1, 2, 3];0;0;0;0
CSE30;21;5.68360928876;0.971283852497;2;FALSE;0;[1, 2, 3];0;0;0;0
CSE30;22;5.70022966282;0.753964287902;2;FALSE;0;[1, 2, 3];0;0;0;0
CSE30;23;5.91718258121;0.713295363722;1;TRUE;1;[1, 2, 3, 1];0;0;0;0
CSE30;24;9.53353179772;0.814168398085;1;TRUE;1;[1, 2, 3];0;0;0;0
CSE30;25;9.54864047335;NA;3;None;NA;[];0;0;0;0
CSE30;26;9.51705267192;NA;3;None;NA;[];0;0;0;0
CSE30;27;5.65169598097;0.748399760325;1;TRUE;1;[1, 2, 3];0;0;0;0
CSE30;28;5.91691083716;0.798081436567;2;FALSE;0;[1, 3, 2, 3];0;0;0;0
CSE30;29;9.54873577926;0.838248437111;2;FALSE;0;[1, 2, 3];0;0;0;0
CSE30;30;5.78368636436;0.743319592058;1;TRUE;1;[1, 2, 3];1;3;5;2
CSE30;31;9.01679339095;0.681389811735;1;FALSE;0;[2, 1, 3];0;0;0;0
CSE30;32;9.03360046685;0.632716787141;2;TRUE;1;[2, 1, 3];0;0;0;0
CSE30;33;9.0336444542;0.646314902461;3;FALSE;0;[1, 2];0;0;0;0
CSE30;34;9.05036062292;NA;3;None;NA;[];0;0;0;0
CSE30;35;9.03351346966;0.685625770938;1;TRUE;1;[1, 2, 3];0;0;0;0
CSE30;36;9.0336302805;NA;3;None;NA;[];0;0;0;0
CSE30;37;9.05026873824;NA;1;None;NA;[2, 1, 3];0;0;0;0
CSE30;38;9.03369332902;0.761824762153;2;FALSE;0;[1, 2, 3];0;0;0;0
CSE30;39;5.16687430323;0.813093564844;2;FALSE;0;[1, 2, 3];0;0;0;0
CSE30;40;5.03362148303;NA;1;None;NA;[1, 2];0;0;0;0
CSE30;41;9.0170925049;NA;3;None;NA;[];0;0;0;0
CSE30;42;9.03364054421;NA;2;None;NA;[1, 2, 3];0;0;0;0
CSE30;43;5.08363069594;NA;1;None;NA;[];0;0;0;0
CSE30;44;9.01705389379;NA;3;None;NA;[];0;0;0;0
CSE30;45;5.33724364542;NA;3;None;NA;[];1;3;5;3
CSE30;46;4.36209649553;NA;2;None;NA;[];0;0;0;0
CSE30;47;8.53374440322;0.718288763695;1;TRUE;1;[1, 3, 2];0;0;0;0
CSE30;48;8.53360608746;NA;3;None;NA;[];0;0;0;0
CSE30;49;8.53353912894;NA;2;None;NA;[1, 3, 2, 3, 2];0;0;0;0
CSE30;50;8.55002656347;NA;1;None;NA;[1, 2, 3];0;0;0;0
CSE30;51;8.53385486033;NA;3;None;NA;[];0;0;0;0
CSE30;52;8.60201178568;NA;3;None;NA;[];0;0;0;0
CSE30;53;4.80028474475;NA;1;None;NA;[2, 1];0;0;0;0
CSE30;54;4.36694487848;0.717858997686;2;FALSE;0;[1, 2, 3, 3, 2, 1];0;0;0;0
CSE30;55;8.55076750586;0.899594445695;1;FALSE;0;[2, 3, 2, 1];0;0;0;0
CSE30;56;4.81697647606;0.732765938225;2;TRUE;1;[2, 1, 3, 1, 2];0;0;0;0
CSE30;57;4.70020962414;NA;3;None;NA;[];0;0;0;0
CSE30;58;8.55024943269;0.685727237863;2;TRUE;1;[2, 1, 3];0;0;0;0
CSE30;59;8.53363736735;0.540808741762;1;FALSE;0;[2, 1, 3, 1];0;0;0;0
CSE30;60;8.51694710229;NA;3;None;NA;[];1;3;5;2
CSE32;1;10.0001813252;1.00008015416;2;FALSE;0;[3, 1, 2];0;0;0;0
CSE32;2;10.0336350858;0.984381014088;1;FALSE;0;[3, 2, 3, 2];0;0;0;0
CSE32;3;10.0335617737;0.717109716716;1;FALSE;0;[2, 3, 2, 1];0;0;0;0
CSE32;4;5.83112957272;0.391997323266;3;TRUE;1;[3, 3, 2, 1, 2, 3, 1];0;0;0;0
CSE32;5;10.016909183;0.750234598323;3;FALSE;0;[2, 3, 1, 1];0;0;0;0
CSE32;6;10.0500995089;1.03327727406;2;FALSE;0;[1, 1, 3, 1, 2];0;0;0;0
CSE32;7;6.36683938988;1.01765696469;1;FALSE;0;[2];0;0;0;0
CSE32;8;6.40010889285;1.02991943461;2;FALSE;0;[1];0;0;0;0
CSE32;9;6.1341610754;1.02814910135;3;TRUE;1;[3];0;0;0;0
CSE32;10;10.0334879729;1.01700835037;2;FALSE;0;[1];0;0;0;0
CSE32;11;10.0834315715;1.03663247465;1;FALSE;0;[2];0;0;0;0
CSE32;12;6.40298223697;1.01941821676;3;FALSE;0;[1, 3];0;0;0;0
CSE32;13;6.06457570888;0.0968260490589;3;FALSE;0;[2, 1, 1, 2, 3, 1, 3];0;0;0;0
CSE32;14;6.03170111356;1.01445277863;1;FALSE;0;[2, 1];0;0;0;0
CSE32;15;6.26693606406;0.756573840051;2;FALSE;0;[1, 3, 1];7;7;2;3
CSE32;16;5.80028767653;1.02249298435;1;FALSE;0;[2];0;0;0;0
CSE32;17;9.53314536121;1.02863241603;2;FALSE;0;[1];0;0;0;0
CSE32;18;9.5170049774;0.907225774676;3;TRUE;1;[3, 1, 3];0;0;0;0
CSE32;19;9.53384329204;1.02271312003;1;FALSE;0;[2, 1, 2];0;0;0;0
CSE32;20;9.56706783028;0.476867638162;1;TRUE;1;[1, 3];0;0;0;0
CSE32;21;5.66809331941;1.01330367809;2;FALSE;0;[1, 2, 1];0;0;0;0
CSE32;22;5.70023919283;0.813088649965;1;TRUE;1;[1, 2, 2];0;0;0;0
CSE32;23;5.91707525923;0.685305402552;2;FALSE;0;[1, 1, 1, 2, 1, 3, 1];0;0;0;0
CSE32;24;9.51977617338;1.00078243038;2;FALSE;0;[1];0;0;0;0
CSE32;25;9.55012639;1.03025837745;3;FALSE;0;[2, 3];0;0;0;0
CSE32;26;9.53358816606;1.03273042032;3;FALSE;0;[2, 3];0;0;0;0
CSE32;27;5.66687585042;NA;3;None;NA;[2, 3];0;0;0;0
CSE32;28;5.90071640548;1.0207974695;2;FALSE;0;[1, 3, 2, 1];0;0;0;0
CSE32;29;9.56688992633;1.04890430364;3;TRUE;1;[3, 2, 1, 3, 2];0;0;0;0
CSE32;30;5.78357203741;1.01312907064;1;FALSE;0;[2, 3];7;5;2;2
CSE32;31;9.01683000594;0.984511955626;2;FALSE;0;[1, 3, 2, 1];0;0;0;0
CSE32;32;9.04773299551;0.671153010778;1;FALSE;0;[2, 3, 2];0;0;0;0
CSE32;33;9.01684026963;0.899743991048;3;FALSE;0;[1, 3];0;0;0;0
CSE32;34;9.06683274293;0.856555712751;2;FALSE;0;[1, 3, 2];0;0;0;0
CSE32;35;9.03344300818;0.632962843822;1;TRUE;1;[1, 3, 2, 1, 3];0;0;0;0
CSE32;36;9.03342150331;0.793884682557;3;FALSE;0;[2, 1, 3, 2, 1, 3, 2];0;0;0;0
CSE32;37;9.03611889848;0.9012602559;3;FALSE;0;[1, 3];0;0;0;0
CSE32;38;9.01668435931;0.846552176911;3;FALSE;0;[2, 3, 2, 3, 2, 1, 3];0;0;0;0
CSE32;39;5.18366431286;NA;2;None;NA;[2, 1, 3];0;0;0;0
CSE32;40;5.01724641846;0.62414162746;1;FALSE;0;[3, 2, 3];0;0;0;0
CSE32;41;9.01687643692;1.01076216421;3;FALSE;0;[2, 3, 1];0;0;0;0
CSE32;42;9.03350703405;1.03119995719;2;FALSE;0;[1, 3, 2, 2, 3, 1, 2];0;0;0;0
CSE32;43;5.08349413113;1.02750791829;1;FALSE;0;[2, 3, 2, 1, 3, 2];0;0;0;0
CSE32;44;9.03371866154;1.0234168231;2;TRUE;1;[2, 3, 1, 2, 3];0;0;0;0
CSE32;45;5.33380350803;0.887355811704;1;FALSE;0;[2, 1, 3, 2, 1];6;4;2;2
CSE32;46;4.3337336172;0.88874521949;3;FALSE;0;[2, 1, 3, 2];0;0;0;0
CSE32;47;8.50278439216;1.01880713544;2;TRUE;1;[2, 1, 3, 1, 2, 3];0;0;0;0
CSE32;48;8.53373870017;0.27034094518;1;FALSE;0;[3, 2, 3, 2, 3, 2, 1, 3, 2, 3];0;0;0;0
CSE32;49;8.51693508657;0.914566407404;2;TRUE;1;[2, 1, 3, 2, 3];0;0;0;0
CSE32;50;8.5321644458;0.666031206871;3;FALSE;0;[2, 1, 3, 2, 3, 1, 2, 3, 2];0;0;0;0
CSE32;51;8.51693655281;0.683299086981;1;FALSE;0;[2, 1, 3, 2];0;0;0;0
CSE32;52;8.53375336258;0.950481699935;2;FALSE;0;[3, 1, 2, 3];0;0;0;0
CSE32;53;4.78339608846;0.919740132559;3;FALSE;0;[2, 1, 3, 2];0;0;0;0
CSE32;54;4.38359706126;0.687540455132;1;FALSE;0;[2, 3, 1, 2, 3, 2, 1, 1, 2, 3, 1];0;0;0;0
CSE32;55;8.54750621686;0.633228801935;2;FALSE;0;[3, 1, 3, 2, 1, 2, 1];0;0;0;0
CSE32;56;4.81966307731;1.02630796684;2;TRUE;1;[2, 1, 3, 2];0;0;0;0
CSE32;57;4.69787414567;0.857650278682;1;FALSE;0;[2, 1, 3, 2, 3];0;0;0;0
CSE32;58;8.55023831308;0.663776745684;1;FALSE;0;[2, 3];0;0;0;0
CSE32;59;8.55026421668;0.919261585114;3;TRUE;1;[3, 1, 2, 3, 2, 1];0;0;0;0
CSE32;60;8.51690038553;NA;3;None;NA;[2, 1, 3, 2, 3, 1, 2, 1];7;5;2;2
CSE51;1;10.0322739251;1.00115686399;2;FALSE;0;[3, 2];0;0;0;0
CSE51;2;10.0340001799;NA;3;None;NA;[2, 1, 3];0;0;0;0
CSE51;3;10.0168691057;0.799627819907;2;FALSE;0;[3, 2, 1];0;0;0;0
CSE51;4;5.85006216863;0.888562500069;3;FALSE;0;[1, 2, 3];0;0;0;0
CSE51;5;10.0348325161;NA;1;None;NA;[1];0;0;0;0
CSE51;6;10.0167747775;0.433529369806;1;TRUE;1;[1, 1, 2, 1, 3];0;0;0;0
CSE51;7;6.36689119708;NA;2;None;NA;[];0;0;0;0
CSE51;8;6.38321388355;0.362616573806;1;FALSE;0;[2, 2, 2, 2, 2, 3, 3];0;0;0;0
CSE51;9;6.13355649525;0.715775096063;3;FALSE;0;[2, 3, 2];0;0;0;0
CSE51;10;10.0168925656;0.267079707447;3;FALSE;0;[1, 1, 2, 2, 2, 2];0;0;0;0
CSE51;11;10.0334410532;1.03362228134;2;TRUE;1;[2, 1, 3, 2, 2];0;0;0;0
CSE51;12;6.3825003128;NA;1;None;NA;[3, 3, 3, 1, 2, 2, 3];0;0;0;0
CSE51;13;6.05057212734;1.01458907958;3;FALSE;0;[2];0;0;0;0
CSE51;14;6.03351925273;0.835672736692;3;FALSE;0;[1, 2, 1];0;0;0;0
CSE51;15;6.26704700965;NA;1;None;NA;[1, 2, 2];6;6;2;2
CSE51;16;5.80060731713;0.615707880798;2;FALSE;0;[1, 2, 3, 2, 1, 2, 2];0;0;0;0
CSE51;17;9.53337702732;1.01653935673;1;FALSE;0;[2, 2, 2, 2, 2, 2, 2];0;0;0;0
CSE51;18;9.51722442484;NA;2;None;NA;[2, 1];0;0;0;0
CSE51;19;9.55037271853;1.02198296123;3;FALSE;0;[2, 1];0;0;0;0
CSE51;20;9.53354320133;NA;2;None;NA;[1, 1];0;0;0;0
CSE51;21;5.66706304055;0.40667258963;3;FALSE;0;[2, 1, 1, 2, 3, 1, 2, 3, 1, 2, 1];0;0;0;0
CSE51;22;5.69997331441;0.529164977741;2;FALSE;0;[3, 2, 1, 2, 1];0;0;0;0
CSE51;23;5.91741493846;0.808013390712;1;FALSE;0;[2, 1, 2];0;0;0;0
CSE51;24;9.55012199127;NA;2;None;NA;[];0;0;0;0
CSE51;25;9.55160924866;0.342391013523;1;FALSE;0;[3, 3, 2, 1];0;0;0;0
CSE51;26;9.51712423169;1.01241554667;3;FALSE;0;[2, 2, 2, 2];0;0;0;0
CSE51;27;5.6667873872;0.69585842801;1;TRUE;1;[1, 2, 1, 2, 1];0;0;0;0
CSE51;28;5.91741591595;NA;2;None;NA;[2, 3, 1, 2, 3];0;0;0;0
CSE51;29;9.56693782355;0.627089376445;1;FALSE;0;[2, 3, 1];0;0;0;0
CSE51;30;5.7836331308;0.823751513732;1;TRUE;1;[1, 2, 3, 1, 1, 3, 2, 1, 3, 2, 2, 1, 1, 2, 1, 2, 1, 3, 2];6;6;2;5
CSE51;31;9.03381347847;0.43725498729;2;FALSE;0;[3, 3, 3, 1, 3, 1];0;0;0;0
CSE51;32;9.03355835249;0.586690245769;3;FALSE;0;[2, 2, 3, 2, 1, 1, 2, 3, 3, 1];0;0;0;0
CSE51;33;9.01688963309;NA;3;None;NA;[2, 1, 3, 2, 3];0;0;0;0
CSE51;34;9.06684642785;0.863605249154;3;FALSE;0;[2, 2, 3, 3];0;0;0;0
CSE51;35;9.06459819124;1.01715623196;2;FALSE;0;[1];0;0;0;0
CSE51;36;9.03345815934;0.794758434381;1;FALSE;0;[2, 3, 1];0;0;0;0
CSE51;37;9.05176564773;NA;3;None;NA;[];0;0;0;0
CSE51;38;9.01681094481;1.03066262873;2;FALSE;0;[1, 2, 1];0;0;0;0
CSE51;39;5.16701758707;NA;1;None;NA;[];0;0;0;0
CSE51;40;5.01534959102;0.852851690099;2;FALSE;0;[1, 2, 1, 2, 3, 1];0;0;0;0
CSE51;41;9.03360233973;NA;1;None;NA;[];0;0;0;0
CSE51;42;9.03334086004;0.471314491053;3;FALSE;0;[2, 2, 1];0;0;0;0
CSE51;43;5.08359676801;1.02238978226;3;FALSE;0;[1, 2, 1, 1];0;0;0;0
CSE51;44;9.01700155617;NA;1;None;NA;[];0;0;0;0
CSE51;45;5.31685473655;1.00870786658;2;FALSE;0;[1];6;1;1;5
CSE51;46;4.35030654217;NA;3;None;NA;[1, 1];0;0;0;0
CSE51;47;8.51693606406;0.447430698483;1;FALSE;0;[2, 2, 3, 2, 1];0;0;0;0
CSE51;48;8.55030087271;0.793479315993;1;TRUE;1;[1, 2, 1, 3, 2, 1, 3];0;0;0;0
CSE51;49;8.51714671406;0.353605546161;2;FALSE;0;[3, 2, 2, 1, 2, 3, 1, 3, 1, 2, 3, 1, 1, 2, 3, 3, 1, 2, 2];0;0;0;0
CSE51;50;8.53397965248;0.424739382449;1;FALSE;0;[3, 2, 3, 3, 1, 2, 1, 3, 2, 2, 1, 3, 1, 2, 3, 2, 1, 3];0;0;0;0
CSE51;51;8.53355395377;0.0413666245586;2;FALSE;0;[1, 2, 3];0;0;0;0
CSE51;52;8.53379686107;1.00365488313;3;FALSE;0;[2, 1, 3, 3];0;0;0;0
CSE51;53;4.80036196609;NA;3;None;NA;[];0;0;0;0
CSE51;54;4.38374759537;NA;2;None;NA;[];0;0;0;0
CSE51;55;8.53373479019;NA;3;None;NA;[];0;0;0;0
CSE51;56;4.81697790081;NA;1;None;NA;[];0;0;0;0
CSE51;57;4.71697535933;NA;2;None;NA;[];0;0;0;0
CSE51;58;8.55016597851;0.734861582646;3;FALSE;0;[1, 1, 1, 1, 1];0;0;0;0
CSE51;59;8.55032042259;0.514031653752;2;TRUE;1;[2, 2, 2, 2, 2, 2, 3, 3];0;0;0;0
CSE51;60;8.51688230188;NA;1;None;NA;[2, 3, 1, 2, 2];6;1;1;5
CSE53;1;10.0152254493;1.03156866274;2;FALSE;0;[3, 1];0;0;0;0
CSE53;2;10.0974278218;1.01385979464;2;TRUE;1;[2];0;0;0;0
CSE53;3;10.0528360038;1.00045350924;2;FALSE;0;[1];0;0;0;0
CSE53;4;5.83345747509;1.02975242166;3;TRUE;1;[3];0;0;0;0
CSE53;5;10.0002018525;1.00006842431;3;FALSE;0;[2];0;0;0;0
CSE53;6;10.0167811312;NA;1;None;NA;[];0;0;0;0
CSE53;7;6.36369625737;1.01077047354;1;TRUE;1;[1];0;0;0;0
CSE53;8;6.40019588983;NA;3;None;NA;[2];0;0;0;0
CSE53;9;6.13350908679;1.01903516818;1;TRUE;1;[1];0;0;0;0
CSE53;10;10.0167503402;NA;1;None;NA;[3];0;0;0;0
CSE53;11;10.0334654905;NA;2;None;NA;[];0;0;0;0
CSE53;12;6.38353010291;1.03016129019;1;FALSE;0;[3];0;0;0;0
CSE53;13;6.05022804939;1.03209378372;3;FALSE;0;[2];0;0;0;0
CSE53;14;6.05017282097;1.02832770417;1;TRUE;1;[1];0;0;0;0
CSE53;15;6.26657927869;1.02494025474;2;FALSE;0;[3];7;6;2;5
CSE53;16;5.80032531006;NA;3;None;NA;[2];0;0;0;0
CSE53;17;9.53345424936;1.04225757398;3;TRUE;1;[3, 2];0;0;0;0
CSE53;18;9.53637940068;1.00656566201;2;TRUE;1;[2];0;0;0;0
CSE53;19;9.53573767575;1.03543037985;3;TRUE;1;[3];0;0;0;0
CSE53;20;9.53359158729;NA;1;None;NA;[];0;0;0;0
CSE53;21;5.70143955567;NA;1;None;NA;[];0;0;0;0
CSE53;22;5.70016685826;NA;1;None;NA;[];0;0;0;0
CSE53;23;5.93337155335;1.03217649512;2;FALSE;0;[1];0;0;0;0
CSE53;24;9.55082725332;1.04853356029;3;FALSE;0;[2, 3];0;0;0;0
CSE53;25;9.55013225496;1.02031966379;3;FALSE;0;[2];0;0;0;0
CSE53;26;9.5168617745;NA;2;None;NA;[];0;0;0;0
CSE53;27;5.65527055084;NA;2;None;NA;[];0;0;0;0
CSE53;28;5.91667253163;1.01982789121;3;FALSE;0;[2, 2];0;0;0;0
CSE53;29;9.56662991289;NA;1;None;NA;[];0;0;0;0
CSE53;30;5.79915427204;NA;2;None;NA;[];7;2;1;6
CSE53;31;9.036660919;NA;2;None;NA;[];0;0;0;0
CSE53;32;9.0501513161;1.03782642633;1;FALSE;0;[2];0;0;0;0
CSE53;33;9.0169800513;NA;3;None;NA;[];0;0;0;0
CSE53;34;9.05028669904;NA;2;None;NA;[];0;0;0;0
CSE53;35;9.03361015968;1.02999668152;1;FALSE;0;[2];0;0;0;0
CSE53;36;9.01679041743;1.0168973891;3;TRUE;1;[3];0;0;0;0
CSE53;37;9.06685131532;1.02863117676;1;FALSE;0;[2];0;0;0;0
CSE53;38;9.06954431177;1.04627502373;3;FALSE;0;[1];0;0;0;0
CSE53;39;5.16666422293;1.02111018384;2;TRUE;1;[2];0;0;0;0
CSE53;40;5.02587720327;NA;2;None;NA;[];0;0;0;0
CSE53;41;9.03342834577;NA;3;None;NA;[];0;0;0;0
CSE53;42;9.03377242372;1.00354126477;1;FALSE;0;[2];0;0;0;0
CSE53;43;5.0658640462;1.0481306988;1;FALSE;0;[2];0;0;0;0
CSE53;44;9.01728845071;NA;2;None;NA;[];0;0;0;0
CSE53;45;5.30782073539;1.02265870287;3;FALSE;0;[1];7;2;1;6
CSE53;46;4.35015698556;NA;1;None;NA;[1];0;0;0;0
CSE53;47;8.51684222462;1.02841632373;3;FALSE;0;[2];0;0;0;0
CSE53;48;8.5334566931;NA;1;None;NA;[];0;0;0;0
CSE53;49;8.5741854541;1.00027963871;3;FALSE;0;[2];0;0;0;0
CSE53;50;8.53343274449;NA;3;None;NA;[];0;0;0;0
CSE53;51;8.53178957678;1.0195306687;2;FALSE;0;[3];0;0;0;0
CSE53;52;8.55163368601;NA;2;None;NA;[3];0;0;0;0
CSE53;53;4.80735984689;NA;1;None;NA;[];0;0;0;0
CSE53;54;4.38293774144;1.02538257237;2;FALSE;0;[3];0;0;0;0
CSE53;55;8.55026372793;1.01937952525;2;FALSE;0;[3];0;0;0;0
CSE53;56;4.80014349615;1.02928683325;2;FALSE;0;[3];0;0;0;0
CSE53;57;4.70014437589;1.00880980579;3;FALSE;0;[2];0;0;0;0
CSE53;58;8.55016304603;NA;3;None;NA;[];0;0;0;0
CSE53;59;8.53352023022;1.01966330128;1;TRUE;1;[1];0;0;0;0
CSE53;60;8.53467611708;1.02969491016;1;FALSE;0;[3];7;1;1;6
CSE57;1;10.0171403939;NA;1;None;NA;[1];0;0;0;0
CSE57;2;10.0336058267;0.651073943198;3;FALSE;0;[2, 2, 1, 3, 1];0;0;0;0
CSE57;3;10.0334029962;1.0010429723;2;FALSE;0;[3, 1];0;0;0;0
CSE57;4;5.85016695633;0.726711910676;3;FALSE;0;[2, 1, 3];0;0;0;0
CSE57;5;10.0168002252;1.03329547156;1;FALSE;0;[3, 1];0;0;0;0
CSE57;6;10.0336209778;1.01683686503;2;TRUE;1;[2, 3];0;0;0;0
CSE57;7;6.35016695633;1.02377176542;2;FALSE;0;[1, 2];0;0;0;0
CSE57;8;6.40017858853;0.434374518008;1;FALSE;0;[3, 3, 1, 2];0;0;0;0
CSE57;9;6.13348246665;1.02574934554;3;TRUE;1;[3];0;0;0;0
CSE57;10;10.0307798855;NA;2;None;NA;[2, 1];0;0;0;0
CSE57;11;10.0501382179;0.667061868574;1;TRUE;1;[1, 2, 3, 3, 1, 2, 1, 3, 2];0;0;0;0
CSE57;12;6.38688806301;0.382924815854;3;TRUE;1;[3, 1, 2];0;0;0;0
CSE57;13;6.06684069355;0.573449358504;3;FALSE;0;[1, 2, 3];0;0;0;0
CSE57;14;6.05016021161;NA;1;None;NA;[3, 1, 2, 2];0;0;0;0
CSE57;15;6.26680071396;0.845747960224;3;FALSE;0;[1, 2, 3];5;6;1;2
CSE57;16;5.81681967739;1.02004668831;2;FALSE;0;[1, 2];0;0;0;0
CSE57;17;9.53334727894;0.964907097401;1;TRUE;1;[1, 1];0;0;0;0
CSE57;18;9.51682661761;1.0150601297;2;FALSE;0;[1];0;0;0;0
CSE57;19;9.53354668815;1.00866505725;3;FALSE;0;[1];0;0;0;0
CSE57;20;9.55017878403;1.01230832141;3;FALSE;0;[2];0;0;0;0
CSE57;21;5.7021848015;0.656348870893;2;TRUE;1;[2, 2];0;0;0;0
CSE57;22;5.71818592367;0.628061772765;2;FALSE;0;[3, 3, 1, 2];0;0;0;0
CSE57;23;5.91670951358;1.02351231576;1;FALSE;0;[3, 2];0;0;0;0
CSE57;24;9.53354473315;1.00446742433;1;FALSE;0;[2];0;0;0;0
CSE57;25;9.53352518323;1.00115863199;2;FALSE;0;[1];0;0;0;0
CSE57;26;9.51681097767;1.0103322219;1;FALSE;0;[2];0;0;0;0
CSE57;27;5.68581027583;1.02977312601;3;TRUE;1;[3];0;0;0;0
CSE57;28;5.9183780994;1.01102344645;2;FALSE;0;[1, 1, 3, 1];0;0;0;0
CSE57;29;9.56684900227;1.02657616906;1;FALSE;0;[2, 2, 3];0;0;0;0
CSE57;30;5.81421025159;1.04559853447;3;TRUE;1;[3, 1];5;1;1;3
CSE57;31;9.03351052079;1.02603797355;2;FALSE;0;[1, 2];0;0;0;0
CSE57;32;9.05008494441;0.82053851458;1;FALSE;0;[3, 2];0;0;0;0
CSE57;33;9.01678067529;1.01913992894;3;TRUE;1;[3];0;0;0;0
CSE57;34;9.05060155109;NA;1;None;NA;[2, 1, 2, 1, 3];0;0;0;0
CSE57;35;9.0696500173;0.901737896252;2;FALSE;0;[3, 2];0;0;0;0
CSE57;36;9.01674890667;1.01560152484;3;FALSE;0;[2];0;0;0;0
CSE57;37;9.06520045512;0.559006492875;3;FALSE;0;[1, 2, 3, 3, 1];0;0;0;0
CSE57;38;9.0168173314;NA;2;None;NA;[1];0;0;0;0
CSE57;39;5.16683707682;0.925073214575;3;FALSE;0;[2, 1, 3];0;0;0;0
CSE57;40;5.01656562616;0.56666567144;3;TRUE;1;[3, 1, 2, 2, 1, 3];0;0;0;0
CSE57;41;9.03353349195;0.428432313422;1;FALSE;0;[3, 1, 2, 1, 3];0;0;0;0
CSE57;42;9.0501123143;0.917963814175;2;FALSE;0;[1, 2];0;0;0;0
CSE57;43;5.08350260307;1.02667002654;2;FALSE;0;[1, 2];0;0;0;0
CSE57;44;9.05020322144;0.869551575607;1;FALSE;0;[2, 1, 3];0;0;0;0
CSE57;45;5.31692817945;1.02424727238;1;FALSE;0;[3, 2];5;7;1;3
CSE57;46;4.35009902035;1.00064524392;1;FALSE;0;[2, 1];0;0;0;0
CSE57;47;8.51678458528;0.896780770293;2;TRUE;1;[2, 2, 2];0;0;0;0
CSE57;48;8.56698194174;1.03720998783;3;FALSE;0;[2, 2];0;0;0;0
CSE57;49;8.51681684265;1.02256855534;1;FALSE;0;[2];0;0;0;0
CSE57;50;8.51692729971;0.916420113168;2;FALSE;0;[1, 1, 3];0;0;0;0
CSE57;51;8.53345235977;1.00215397877;3;FALSE;0;[2];0;0;0;0
CSE57;52;8.55015972286;1.02927186581;1;TRUE;1;[1];0;0;0;0
CSE57;53;4.80000869972;0.956521092122;2;TRUE;1;[2, 3];0;0;0;0
CSE57;54;4.36671694255;1.00210316687;3;FALSE;0;[1, 1, 2];0;0;0;0
CSE57;55;8.53344405106;1.02602483385;2;TRUE;1;[2];0;0;0;0
CSE57;56;4.81684069355;1.01922011868;1;FALSE;0;[3];0;0;0;0
CSE57;57;4.70021416939;1.03283885772;3;FALSE;0;[1];0;0;0;0
CSE57;58;8.53472359343;1.02554514191;1;FALSE;0;[3];0;0;0;0
CSE57;59;8.55015288039;1.03319693236;3;FALSE;0;[1];0;0;0;0
CSE57;60;8.53354326691;1.02190096123;2;TRUE;1;[2];5;6;1;3
CSE59;1;10.0168192617;1.01468490185;1;TRUE;1;[1];0;0;0;0
CSE59;2;10.0668489043;1.0009725278;3;TRUE;1;[3];0;0;0;0
CSE59;3;10.0173495526;NA;2;None;NA;[1];0;0;0;0
CSE59;4;5.85007578027;1.01495636466;3;FALSE;0;[1];0;0;0;0
CSE59;5;10.0169272749;1.01672688825;2;FALSE;0;[3];0;0;0;0
CSE59;6;10.0335036292;1.01683828216;1;FALSE;0;[2];0;0;0;0
CSE59;7;6.36668121505;0.379854136084;1;FALSE;0;[2, 3, 1];0;0;0;0
CSE59;8;6.3834315634;0.788358292852;2;FALSE;0;[1, 3, 2, 1];0;0;0;0
CSE59;9;6.13357855416;0.519017301034;3;FALSE;0;[1, 1];0;0;0;0
CSE59;10;10.0501454756;0.566874034525;3;TRUE;1;[3, 3];0;0;0;0
CSE59;11;10.0644076114;0.981534556424;3;FALSE;0;[1, 1];0;0;0;0
CSE59;12;6.36680437937;0.645744331466;1;FALSE;0;[3, 3];0;0;0;0
CSE59;13;6.05009024719;0.633164789145;2;FALSE;0;[1, 1];0;0;0;0
CSE59;14;6.05004919242;0.844956466662;2;TRUE;1;[2, 2];0;0;0;0
CSE59;15;6.26682573763;1.00992796147;1;TRUE;1;[1, 1];6;5;3;6
CSE59;16;5.80016392585;1.01094755442;3;TRUE;1;[3, 3];0;0;0;0
CSE59;17;9.53348725616;0.640598002581;1;TRUE;1;[1, 1, 1];0;0;0;0
CSE59;18;9.53352537845;1.02058069848;2;TRUE;1;[2];0;0;0;0
CSE59;19;9.56649285183;0.984398063023;2;FALSE;0;[3, 3];0;0;0;0
CSE59;20;9.53555758983;0.515522552072;3;FALSE;0;[2, 3, 3];0;0;0;0
CSE59;21;5.68351166909;0.721808524238;2;FALSE;0;[3, 3];0;0;0;0
CSE59;22;5.70025517498;1.02148801179;1;FALSE;0;[2];0;0;0;0
CSE59;23;5.93349224138;1.00357893956;2;FALSE;0;[1];0;0;0;0
CSE59;24;9.55010173276;1.00760206533;1;TRUE;1;[1];0;0;0;0
CSE59;25;9.55017895483;0.897839683092;1;TRUE;1;[1, 1];0;0;0;0
CSE59;26;9.51675450271;1.0628550451;3;FALSE;0;[1];0;0;0;0
CSE59;27;5.65018398893;1.01460684911;3;FALSE;0;[1];0;0;0;0
CSE59;28;5.90014403384;1.01226963492;1;TRUE;1;[1];0;0;0;0
CSE59;29;9.55020436969;1.00822162797;2;FALSE;0;[1];0;0;0;0
CSE59;30;5.81661711583;1.02008525834;3;FALSE;0;[1];7;1;1;6
CSE59;31;9.03345866444;1.00823355487;3;FALSE;0;[1];0;0;0;0
CSE59;32;9.06657276201;1.01123747157;2;FALSE;0;[3];0;0;0;0
CSE59;33;9.01678749315;1.00635824737;3;TRUE;1;[3];0;0;0;0
CSE59;34;9.06990846251;1.00924761691;1;FALSE;0;[3];0;0;0;0
CSE59;35;9.04776967489;1.03767774665;1;FALSE;0;[3, 3];0;0;0;0
CSE59;36;9.01712326257;1.01871044564;2;FALSE;0;[3];0;0;0;0
CSE59;37;9.05000227268;1.0156266653;3;TRUE;1;[3, 3];0;0;0;0
CSE59;38;9.01693069612;1.02154363457;3;TRUE;1;[3, 3];0;0;0;0
CSE59;39;5.18353977206;1.01407871024;1;FALSE;0;[3];0;0;0;0
CSE59;40;5.03068062464;1.00076436401;1;FALSE;0;[2];0;0;0;0
CSE59;41;9.03344742325;1.00290136076;2;FALSE;0;[1, 1];0;0;0;0
CSE59;42;9.05006043361;NA;1;None;NA;[];0;0;0;0
CSE59;43;5.06689729024;NA;2;None;NA;[2];0;0;0;0
CSE59;44;9.05287219697;0.474453326075;3;FALSE;0;[2, 3, 1, 2, 3, 1, 1, 2, 3, 3, 1, 2];0;0;0;0
CSE59;45;5.31684853769;0.520779914187;2;FALSE;0;[1, 1, 1, 1, 1];7;7;1;7
CSE59;46;4.33595415941;0.482384226476;2;FALSE;0;[1, 1, 1, 1, 1, 1];0;0;0;0
CSE59;47;8.50057794371;0.78124664525;2;FALSE;0;[1, 1, 1, 1];0;0;0;0
CSE59;48;8.55040573359;0.474157912108;3;TRUE;1;[3, 3, 3, 3, 3];0;0;0;0
CSE59;49;8.55271506471;0.865981523005;1;FALSE;0;[3, 3, 3, 3, 3, 3, 3, 3];0;0;0;0
CSE59;50;8.51680435493;0.690089988213;3;FALSE;0;[2, 2];0;0;0;0
CSE59;51;8.53362312791;0.565816954881;1;FALSE;0;[3, 3, 1, 1, 2, 2];0;0;0;0
CSE59;52;8.55014767501;0.685366945266;2;FALSE;0;[3, 3];0;0;0;0
CSE59;53;4.7834507223;0.993756216787;1;TRUE;1;[1, 1, 1];0;0;0;0
CSE59;54;4.38347603941;0.623452987994;3;FALSE;0;[2, 2, 2];0;0;0;0
CSE59;55;8.56692050574;0.783714207606;1;FALSE;0;[2, 2, 2];0;0;0;0
CSE59;56;4.81683900712;0.800258368101;1;FALSE;0;[2, 2, 2];0;0;0;0
CSE59;57;4.70013201065;0.62064376279;3;FALSE;0;[2, 2];0;0;0;0
CSE59;58;8.5501403438;0.512532157417;2;TRUE;1;[2, 2, 2];0;0;0;0
CSE59;59;8.53350876104;0.78248704793;3;FALSE;0;[2, 2];0;0;0;0
CSE59;60;8.51678676003;0.719504745294;2;TRUE;1;[2, 2];7;7;1;7
CSE60;1;10.0167831108;NA;1;None;NA;[3];0;0;0;0
CSE60;2;10.0335784404;1.00111918484;2;TRUE;1;[2, 1];0;0;0;0
CSE60;3;10.0167879983;NA;1;None;NA;[2, 1];0;0;0;0
CSE60;4;5.85061814378;0.398580727018;2;FALSE;0;[1, 1, 1, 1, 1, 1, 1, 1, 1, 1, 1, 1, 1, 1, 1];0;0;0;0
CSE60;5;10.0334704271;1.00002541475;3;FALSE;0;[2];0;0;0;0
CSE60;6;10.0168226994;1.01681290002;3;FALSE;0;[2, 1, 3];0;0;0;0
CSE60;7;6.38347543676;1.00733183111;3;FALSE;0;[1];0;0;0;0
CSE60;8;6.39765058931;NA;1;None;NA;[2, 3];0;0;0;0
CSE60;9;6.11709419881;0.481934152967;2;TRUE;1;[2, 2];0;0;0;0
CSE60;10;10.0334948645;NA;2;None;NA;[1, 2, 3, 3, 1, 2];0;0;0;0
CSE60;11;10.0336351351;NA;1;None;NA;[3, 2, 1];0;0;0;0
CSE60;12;6.38366946963;NA;2;None;NA;[2];0;0;0;0
CSE60;13;6.05011815478;0.476973468153;1;FALSE;0;[3, 2, 2, 1, 2, 1];0;0;0;0
CSE60;14;6.03623380717;1.02640613963;3;FALSE;0;[1];0;0;0;0
CSE60;15;6.2810236334;0.784733349828;1;FALSE;0;[2, 3, 2, 2];6;7;2;4
CSE60;16;5.81694293136;NA;3;None;NA;[];0;0;0;0
CSE60;17;9.53388415211;1.00649430621;2;FALSE;0;[1];0;0;0;0
CSE60;18;9.51684835866;NA;3;None;NA;[3];0;0;0;0
CSE60;19;9.55255871694;NA;1;None;NA;[2, 1, 3, 3, 3, 2, 2];0;0;0;0
CSE60;20;9.5476599977;0.811019228631;1;FALSE;0;[2, 2, 2, 2, 2];0;0;0;0
CSE60;21;5.66691250681;NA;2;None;NA;[2, 2, 1, 3, 2];0;0;0;0
CSE60;22;5.70057647804;0.258782124743;3;FALSE;0;[1, 1, 1, 3, 2];0;0;0;0
CSE60;23;5.93353567493;0.391327987954;3;FALSE;0;[2, 2];0;0;0;0
CSE60;24;9.56706915048;NA;2;None;NA;[];0;0;0;0
CSE60;25;9.55026062477;1.00076425542;3;FALSE;0;[2, 3, 2, 1, 2, 1, 2];0;0;0;0
CSE60;26;9.51695588318;0.619565780622;2;FALSE;0;[3, 2, 1, 3, 2, 3, 1, 2];0;0;0;0
CSE60;27;5.66689735563;1.00876258062;1;FALSE;0;[2, 2];0;0;0;0
CSE60;28;5.91697885433;NA;2;None;NA;[2, 2, 1];0;0;0;0
CSE60;29;9.53402588897;NA;2;None;NA;[1, 2, 3];0;0;0;0
CSE60;30;5.80017057298;0.724733405186;2;FALSE;0;[1, 2, 3];7;7;1;6
CSE60;31;9.03399974096;0.556611499874;3;FALSE;0;[2, 1, 3];0;0;0;0
CSE60;32;9.05074326322;NA;3;None;NA;[];0;0;0;0
CSE60;33;9.03438438548;0.12994854105;1;TRUE;1;[1, 2, 1, 2, 1, 2];0;0;0;0
CSE60;34;9.06987773974;NA;3;None;NA;[];0;0;0;0
CSE60;35;9.03370111606;0.538689293349;1;FALSE;0;[3, 2, 1, 2, 3];0;0;0;0
CSE60;36;9.03452612235;0.549684514503;1;FALSE;0;[2, 1, 2, 1, 3, 2];0;0;0;0
CSE60;37;9.05034493376;1.01045997834;2;TRUE;1;[2, 3, 1, 2, 3, 1, 3];0;0;0;0
CSE60;38;9.01730313849;0.492532019949;1;FALSE;0;[3, 2, 3, 1, 2];0;0;0;0
CSE60;39;5.16721870731;0.565097614691;1;FALSE;0;[2, 2, 2, 2, 2, 2, 2, 2, 2, 2, 2, 2, 2, 2, 2];0;0;0;0
CSE60;40;5.0167234836;0.524602341735;2;FALSE;0;[1, 1, 1, 1, 1, 1, 1, 1, 1, 1, 1];0;0;0;0
CSE60;41;9.03368889736;1.00314609407;2;FALSE;0;[3];0;0;0;0
CSE60;42;9.03367423493;NA;1;None;NA;[];0;0;0;0
CSE60;43;5.06695551662;1.02299144716;3;FALSE;0;[2];0;0;0;0
CSE60;44;9.03370991352;1.01731514855;3;FALSE;0;[2];0;0;0;0
CSE60;45;5.31721443077;NA;3;None;NA;[2];7;7;1;7
CSE60;46;4.33355473609;NA;1;None;NA;[2, 2];0;0;0;0
CSE60;47;8.50032672791;0.675401035741;3;FALSE;0;[2, 2, 2, 2, 2, 2, 2, 2, 2, 2, 2, 2, 2];0;0;0;0
CSE60;48;8.5503876992;NA;3;None;NA;[];0;0;0;0
CSE60;49;8.55007001312;0.600170592902;2;FALSE;0;[1, 1, 1, 1, 3, 2, 3, 1, 2];0;0;0;0
CSE60;50;8.55039503041;NA;2;None;NA;[];0;0;0;0
CSE60;51;8.53379373376;1.06595695279;1;FALSE;0;[2, 2, 3, 2, 1, 2];0;0;0;0
CSE60;52;8.55037596925;1.06475656268;3;FALSE;0;[2, 2, 2, 2];0;0;0;0
CSE60;53;4.80042960932;0.970972511917;1;FALSE;0;[2, 3, 2, 1, 3, 2, 1, 1, 2];0;0;0;0
CSE60;54;4.38361961736;0.471409018432;2;FALSE;0;[1, 1, 3, 2, 1, 1, 2];0;0;0;0
CSE60;55;8.55039112043;NA;2;None;NA;[];0;0;0;0
CSE60;56;4.78682922419;1.01883610064;1;FALSE;0;[2];0;0;0;0
CSE60;57;4.70048996967;0.483343000494;2;TRUE;1;[2, 1, 1, 1, 2, 3, 1, 2];0;0;0;0
CSE60;58;8.55057049087;0.179752823697;3;TRUE;1;[3, 1, 2, 1, 3, 1, 2];0;0;0;0
CSE60;59;8.53384700727;0.799139617053;3;TRUE;1;[3, 2, 1];0;0;0;0
CSE60;60;8.51711374872;NA;1;None;NA;[];1;1;7;1
CSE62;1;10.0003069335;1.00056499194;3;FALSE;0;[2, 1, 3, 2];0;0;0;0
CSE62;2;10.033562784;0.900920052664;1;FALSE;0;[2, 1, 3];0;0;0;0
CSE62;3;10.0167528003;0.450278700696;3;FALSE;0;[2, 1, 1, 3];0;0;0;0
CSE62;4;5.83349054713;0.781663379283;1;FALSE;0;[2, 1, 3];0;0;0;0
CSE62;5;10.0332739342;0.699514086985;2;TRUE;1;[2, 1, 3];0;0;0;0
CSE62;6;10.017006949;0.733674576893;1;FALSE;0;[2, 1, 3];0;0;0;0
CSE62;7;6.36459444216;0.841604170294;2;TRUE;1;[2, 2, 1, 3];0;0;0;0
CSE62;8;6.38361405364;0.694657167072;2;TRUE;1;[2, 1, 3];0;0;0;0
CSE62;9;6.11699101584;0.72755718049;3;FALSE;0;[2, 2, 1, 3];0;0;0;0
CSE62;10;10.0167796814;0.733653561148;1;FALSE;0;[2, 2, 1, 1, 3, 1, 2, 1, 3, 1, 2, 2];0;0;0;0
CSE62;11;10.050167005;0.750442007488;3;FALSE;0;[2, 2, 1, 1, 3, 1, 1, 2, 1];0;0;0;0
CSE62;12;6.38037561228;0.726164025855;3;FALSE;0;[2, 2, 2, 1, 1, 3];0;0;0;0
CSE62;13;6.06671159886;0.710454727762;1;FALSE;0;[3, 2, 2, 1];0;0;0;0
CSE62;14;6.0339283672;0.698021165303;2;TRUE;1;[2, 2, 2, 1, 3, 1];0;0;0;0
CSE62;15;6.2649881772;0.552120062248;2;TRUE;1;[2, 2, 1];5;4;2;5
CSE62;16;5.81677880165;0.890314922649;2;TRUE;1;[2, 2, 1, 3, 2];0;0;0;0
CSE62;17;9.53350999929;0.688818172279;3;FALSE;0;[2, 2, 1, 3];0;0;0;0
CSE62;18;9.53342495721;0.698297671136;1;FALSE;0;[2, 2, 1, 2, 3];0;0;0;0
CSE62;19;9.53345428206;0.727967736378;2;TRUE;1;[2, 2, 1, 2, 3];0;0;0;0
CSE62;20;9.53345574831;0.912797837768;1;FALSE;0;[2, 2, 1, 3, 2, 1];0;0;0;0
CSE62;21;5.6835320418;0.885534309802;2;TRUE;1;[2, 2, 1, 2, 3, 2, 1];0;0;0;0
CSE62;22;5.70030097075;0.622910033997;1;FALSE;0;[2, 2, 1, 3, 2];0;0;0;0
CSE62;23;5.93340130183;0.612438696406;3;FALSE;0;[2, 1, 2, 1, 3];0;0;0;0
CSE62;24;9.55012106277;0.798069233441;2;TRUE;1;[2, 2, 2];0;0;0;0
CSE62;25;9.54757762044;0.773206914864;1;TRUE;1;[1, 1, 3];0;0;0;0
CSE62;26;9.52050540408;0.522813475471;3;FALSE;0;[1, 2, 3];0;0;0;0
CSE62;27;5.66693906198;0.68606823485;3;FALSE;0;[2, 1, 2, 3];0;0;0;0
CSE62;28;5.91663921535;0.763182500787;2;TRUE;1;[2, 1, 3];0;0;0;0
CSE62;29;9.55019975113;0.779813436869;3;FALSE;0;[2, 2, 1, 3];0;0;0;0
CSE62;30;5.78316225539;0.968111366171;3;FALSE;0;[2, 2, 1, 3];6;6;2;6
CSE62;31;9.03342642345;0.801218164233;2;TRUE;1;[2, 2, 1];0;0;0;0
CSE62;32;9.04739091887;0.927003916751;1;FALSE;0;[2, 1, 3, 2, 1, 3];0;0;0;0
CSE62;33;9.03355056533;0.801197515732;2;TRUE;1;[2, 2, 1];0;0;0;0
CSE62;34;9.04872373348;0.91281315214;1;FALSE;0;[2, 1, 3];0;0;0;0
CSE62;35;9.03327393421;0.653423246152;1;FALSE;0;[2, 2, 1, 3, 1, 2, 1, 3];0;0;0;0
CSE62;36;9.03335751005;1.01203097991;3;FALSE;0;[2, 1, 1, 3, 1, 2, 1, 1, 2, 1, 2];0;0;0;0
CSE62;37;9.04999740964;0.332147697259;3;FALSE;0;[2, 3, 1, 2, 1, 3, 1, 2, 1, 2];0;0;0;0
CSE62;38;9.01675671026;0.609996683948;3;FALSE;0;[2, 1, 2, 1, 2, 1, 3, 1, 2, 1, 2, 1];0;0;0;0
CSE62;39;5.16667562704;0.760523450762;1;FALSE;0;[2, 1, 2, 1, 2, 1];0;0;0;0
CSE62;40;5.03343131093;0.983743193171;2;TRUE;1;[2, 1];0;0;0;0
CSE62;41;9.01692141819;0.673417478711;3;FALSE;0;[2, 1, 1, 2];0;0;0;0
CSE62;42;9.03351488676;0.720338382432;1;TRUE;1;[1, 2, 1, 3];0;0;0;0
CSE62;43;5.06686017812;0.864746979771;2;TRUE;1;[2, 1, 1, 3, 1, 2];0;0;0;0
CSE62;44;9.03343913089;0.996409163617;1;FALSE;0;[2, 1, 1, 3];0;0;0;0
CSE62;45;5.33375349332;1.02560055569;2;FALSE;0;[1, 2, 1, 3, 1, 1, 1];6;6;1;6
CSE62;46;4.35016123782;1.03464391456;3;FALSE;0;[2, 1];0;0;0;0
CSE62;47;8.53618393721;0.837930954041;3;FALSE;0;[2, 1, 1];0;0;0;0
CSE62;48;8.53345232707;0.931275885734;1;TRUE;1;[1, 2, 2];0;0;0;0
CSE62;49;8.51676306398;0.804522418007;3;FALSE;0;[2, 1, 3];0;0;0;0
CSE62;50;8.5167283629;0.678256161012;2;TRUE;1;[2, 1, 3, 1, 2];0;0;0;0
CSE62;51;8.53382915145;0.599088355665;1;FALSE;0;[2, 1, 3, 1];0;0;0;0
CSE62;52;8.53408378893;0.554694138549;2;TRUE;1;[2, 1, 3, 1, 2, 1, 2];0;0;0;0
CSE62;53;4.78351757487;0.895361750947;1;FALSE;0;[2, 1, 2, 1, 2, 3, 1];0;0;0;0
CSE62;54;4.3673157886;0.731318418837;2;TRUE;1;[2, 1, 2, 1];0;0;0;0
CSE62;55;8.55016260632;0.524207126782;2;TRUE;1;[2, 1, 3, 2, 1, 1];0;0;0;0
CSE62;56;4.78643344285;1.00014730853;3;FALSE;0;[2];0;0;0;0
CSE62;57;4.7002213049;0.552400515524;1;FALSE;0;[2, 1, 2, 2, 1];0;0;0;0
CSE62;58;8.55022809849;0.526623556058;1;FALSE;0;[2, 1, 2, 1, 3, 1, 2, 1, 2];0;0;0;0
CSE62;59;8.56711921433;0.623476840155;2;TRUE;1;[2, 1, 2, 3];0;0;0;0
CSE62;60;8.51993894565;0.528498156469;3;FALSE;0;[2, 1, 2];6;7;1;7
CSE63;1;10.0002062511;1.01686859999;3;FALSE;0;[2, 1];0;0;0;0
CSE63;2;10.0500256592;0.550904298598;2;TRUE;1;[2, 1, 1];0;0;0;0
CSE63;3;10.0475560226;0.731409725511;2;TRUE;1;[2, 3, 1];0;0;0;0
CSE63;4;5.85011118985;0.700881844153;1;FALSE;0;[2, 1, 3];0;0;0;0
CSE63;5;10.0166877642;0.716745435955;1;FALSE;0;[2, 1, 3];0;0;0;0
CSE63;6;10.0363260917;1.00014851382;3;FALSE;0;[2, 3];0;0;0;0
CSE63;7;6.35024852765;1.02211955136;2;FALSE;0;[1];0;0;0;0
CSE63;8;6.400071357;1.03920682539;1;FALSE;0;[2];0;0;0;0
CSE63;9;6.11672686396;1.02951376592;3;TRUE;1;[3];0;0;0;0
CSE63;10;10.0337010337;1.00036063065;3;TRUE;1;[3, 3, 3, 3];0;0;0;0
CSE63;11;10.0502280003;1.00037376179;1;FALSE;0;[3];0;0;0;0
CSE63;12;6.38353412673;1.00158797006;3;FALSE;0;[1];0;0;0;0
CSE63;13;6.05014637961;1.04223134657;1;TRUE;1;[1];0;0;0;0
CSE63;14;6.04751936658;1.03110846339;1;TRUE;1;[1];0;0;0;0
CSE63;15;6.26683658757;1.01420294583;2;FALSE;0;[1];6;3;5;5
CSE63;16;5.83343857677;1.0220683816;2;FALSE;0;[1];0;0;0;0
CSE63;17;9.51671708903;1.03386189042;2;FALSE;0;[1];0;0;0;0
CSE63;18;9.5167640087;1.02758727321;3;FALSE;0;[1];0;0;0;0
CSE63;19;9.55013464969;1.00956330292;2;FALSE;0;[1];0;0;0;0
CSE63;20;9.5335490335;1.00237818441;3;FALSE;0;[2];0;0;0;0
CSE63;21;5.68349307202;1.02469335898;1;FALSE;0;[3];0;0;0;0
CSE63;22;5.70016617385;1.02328455968;1;TRUE;1;[1];0;0;0;0
CSE63;23;5.93356858337;1.02091046326;2;FALSE;0;[1];0;0;0;0
CSE63;24;9.53306957308;1.00904991538;2;TRUE;1;[2];0;0;0;0
CSE63;25;9.53334522617;1.02285899637;1;FALSE;0;[2];0;0;0;0
CSE63;26;9.53341365069;0.636111963097;3;TRUE;1;[3, 2];0;0;0;0
CSE63;27;5.65016299699;1.04285781149;3;FALSE;0;[2];0;0;0;0
CSE63;28;5.91679431099;1.02592178671;3;FALSE;0;[1];0;0;0;0
CSE63;29;9.56472715721;1.00407256848;1;FALSE;0;[3];0;0;0;0
CSE63;30;5.80013831529;1.00722987131;2;TRUE;1;[2];5;5;3;5
CSE63;31;9.01698492217;1.03269078669;2;FALSE;0;[1];0;0;0;0
CSE63;32;9.06427164536;1.00221636227;3;FALSE;0;[2];0;0;0;0
CSE63;33;9.06954375504;0.482386380699;2;TRUE;1;[2, 1];0;0;0;0
CSE63;34;9.05016006451;0.586275690126;1;FALSE;0;[2, 3];0;0;0;0
CSE63;35;9.05015908702;1.02759743955;3;FALSE;0;[2];0;0;0;0
CSE63;36;9.04983113805;1.00105029808;1;FALSE;0;[3];0;0;0;0
CSE63;37;9.06673492828;1.02426628804;1;FALSE;0;[3];0;0;0;0
CSE63;38;9.01683438821;1.01937016817;3;FALSE;0;[2];0;0;0;0
CSE63;39;5.16681899269;1.03511606342;1;FALSE;0;[3];0;0;0;0
CSE63;40;5.01678258107;1.01760929608;3;FALSE;0;[1];0;0;0;0
CSE63;41;9.03364776032;1.01660645822;2;FALSE;0;[1];0;0;0;0
CSE63;42;9.0506590748;1.02403401097;1;FALSE;0;[3];0;0;0;0
CSE63;43;5.08408738789;1.02992065057;3;FALSE;0;[2];0;0;0;0
CSE63;44;9.06921678356;1.02785622237;2;FALSE;0;[1];0;0;0;0
CSE63;45;5.31674788006;1.01629365146;2;FALSE;0;[1];5;5;4;5
CSE63;46;4.33349918135;1.03159661372;3;FALSE;0;[2];0;0;0;0
CSE63;47;8.51681483835;1.0215476823;3;FALSE;0;[2];0;0;0;0
CSE63;48;8.55018010312;1.01279707274;1;FALSE;0;[3];0;0;0;0
CSE63;49;8.53621270252;1.04693496946;2;FALSE;0;[1];0;0;0;0
CSE63;50;8.5334923389;1.01958329605;2;FALSE;0;[1];0;0;0;0
CSE63;51;8.55016690697;1.00002087901;1;FALSE;0;[3];0;0;0;0
CSE63;52;8.56678282544;1.02911624841;3;FALSE;0;[1];0;0;0;0
CSE63;53;4.78346912343;1.01922476315;1;FALSE;0;[3];0;0;0;0
CSE63;54;4.36677647174;1.02372080637;2;FALSE;0;[1];0;0;0;0
CSE63;55;8.53347963149;1.01662078318;3;FALSE;0;[2];0;0;0;0
CSE63;56;4.79997458518;1.00240985848;2;TRUE;1;[2];0;0;0;0
CSE63;57;4.69980938882;1.02088611158;2;TRUE;1;[2];0;0;0;0
CSE63;58;8.5501400259;1.02704736613;1;FALSE;0;[3];0;0;0;0
CSE63;59;8.58224970064;1.02854261676;3;FALSE;0;[1];0;0;0;0
CSE63;60;8.51697710222;1.02604473114;1;FALSE;0;[3];5;3;3;5
CSE64;1;10.0169004186;0.366702279986;1;FALSE;0;[3, 1, 1, 1, 1, 3, 3, 2, 2, 1, 1, 1];0;0;0;0
CSE64;2;10.0334958583;0.334365211616;3;FALSE;0;[2, 1, 2, 1, 3, 1, 2, 2, 1, 3];0;0;0;0
CSE64;3;10.0338096346;1.01706706563;1;FALSE;0;[2, 1, 3, 2, 1, 2, 3, 1, 2, 3];0;0;0;0
CSE64;4;5.83341267343;0.305262411079;1;FALSE;0;[2, 3];0;0;0;0
CSE64;5;10.0001769268;NA;2;None;NA;[];0;0;0;0
CSE64;6;10.0168041352;NA;2;None;NA;[3, 2, 1, 2, 3];0;0;0;0
CSE64;7;6.36779756447;NA;3;None;NA;[];0;0;0;0
CSE64;8;6.38343505809;NA;2;None;NA;[];0;0;0;0
CSE64;9;6.11688116189;NA;3;None;NA;[2, 2, 3, 1, 2, 3];0;0;0;0
CSE64;10;10.0168603412;1.00170669208;3;FALSE;0;[1, 1, 2, 3, 1];0;0;0;0
CSE64;11;10.033515897;1.01811492511;1;FALSE;0;[2, 3, 1, 2, 3, 2, 1, 2];0;0;0;0
CSE64;12;6.36693394668;NA;3;None;NA;[];0;0;0;0
CSE64;13;6.06688370338;NA;2;None;NA;[];0;0;0;0
CSE64;14;6.05021641763;1.01556429543;1;FALSE;0;[3];0;0;0;0
CSE64;15;6.28367425138;NA;2;None;NA;[];4;3;3;3
CSE64;16;5.80029070734;NA;2;None;NA;[];0;0;0;0
CSE64;17;9.51702700431;1.02845372939;1;FALSE;0;[3];0;0;0;0
CSE64;18;9.53361755661;NA;3;None;NA;[];0;0;0;0
CSE64;19;9.53373387865;0.574634463353;2;FALSE;0;[3, 3];0;0;0;0
CSE64;20;9.55016265535;NA;2;None;NA;[];0;0;0;0
CSE64;21;5.68363827953;NA;1;None;NA;[];0;0;0;0
CSE64;22;5.68384306496;NA;1;None;NA;[];0;0;0;0
CSE64;23;5.93358891598;NA;3;None;NA;[];0;0;0;0
CSE64;24;9.55028142112;NA;3;None;NA;[];0;0;0;0
CSE64;25;9.55079216283;NA;2;None;NA;[];0;0;0;0
CSE64;26;9.53360142793;NA;3;None;NA;[];0;0;0;0
CSE64;27;5.6674289507;NA;1;None;NA;[];0;0;0;0
CSE64;28;5.91708096209;NA;2;None;NA;[3, 1, 2];0;0;0;0
CSE64;29;9.56696923429;NA;3;None;NA;[];0;0;0;0
CSE64;30;5.80023156882;0.414396076922;2;TRUE;1;[2, 1];3;5;5;4
CSE64;31;9.01692094598;NA;2;None;NA;[];0;0;0;0
CSE64;32;9.03463219755;NA;1;None;NA;[];0;0;0;0
CSE64;33;9.03416153318;NA;1;None;NA;[];0;0;0;0
CSE64;34;9.03387659307;NA;3;None;NA;[];0;0;0;0
CSE64;35;9.03116501893;NA;1;None;NA;[1, 1];0;0;0;0
CSE64;36;9.03362000035;NA;3;None;NA;[];0;0;0;0
CSE64;37;9.06696190307;NA;1;None;NA;[];0;0;0;0
CSE64;38;9.01697324202;NA;1;None;NA;[];0;0;0;0
CSE64;39;5.18457960826;NA;2;None;NA;[];0;0;0;0
CSE64;40;5.00647249033;NA;3;None;NA;[];0;0;0;0
CSE64;41;9.03717955235;1.00356674834;3;FALSE;0;[2];0;0;0;0
CSE64;42;9.05027066867;NA;2;None;NA;[];0;0;0;0
CSE64;43;5.08511498286;NA;2;None;NA;[];0;0;0;0
CSE64;44;9.02320477957;NA;3;None;NA;[];0;0;0;0
CSE64;45;5.33359351021;NA;1;None;NA;[];4;5;3;4
CSE64;46;4.33361061639;NA;1;None;NA;[];0;0;0;0
CSE64;47;8.50172479184;NA;2;None;NA;[];0;0;0;0
CSE64;48;8.55039383317;NA;1;None;NA;[];0;0;0;0
CSE64;49;8.5358687301;NA;3;None;NA;[];0;0;0;0
CSE64;50;8.51694636088;NA;3;None;NA;[];0;0;0;0
CSE64;51;8.53412927581;NA;2;None;NA;[];0;0;0;0
CSE64;52;8.5500013685;NA;1;None;NA;[];0;0;0;0
CSE64;53;4.80030488103;NA;2;None;NA;[];0;0;0;0
CSE64;54;4.36805904467;NA;3;None;NA;[];0;0;0;0
CSE64;55;8.55030536978;NA;2;None;NA;[];0;0;0;0
CSE64;56;4.80029315108;NA;3;None;NA;[];0;0;0;0
CSE64;57;4.71694841362;NA;3;None;NA;[];0;0;0;0
CSE64;58;8.53364052777;NA;1;None;NA;[];0;0;0;0
CSE64;59;8.53374316486;NA;1;None;NA;[];0;0;0;0
CSE64;60;8.5170299368;NA;2;None;NA;[];4;5;3;4
CSE65;1;10.0331214773;1.01650942001;2;FALSE;0;[3, 2];0;0;0;0
CSE65;2;10.050256495;NA;3;None;NA;[];0;0;0;0
CSE65;3;10.0310144845;1.0143638002;3;TRUE;1;[3, 3];0;0;0;0
CSE65;4;5.83356662907;NA;3;None;NA;[];0;0;0;0
CSE65;5;10.0002121167;NA;1;None;NA;[];0;0;0;0
CSE65;6;10.0167904503;NA;2;None;NA;[];0;0;0;0
CSE65;7;6.36672378502;NA;2;None;NA;[];0;0;0;0
CSE65;8;6.38349957284;NA;1;None;NA;[];0;0;0;0
CSE65;9;6.13365988219;NA;1;None;NA;[];0;0;0;0
CSE65;10;10.0169302322;NA;2;None;NA;[];0;0;0;0
CSE65;11;10.0502100639;NA;1;None;NA;[];0;0;0;0
CSE65;12;6.38344336681;NA;2;None;NA;[];0;0;0;0
CSE65;13;6.08239363376;NA;3;None;NA;[];0;0;0;0
CSE65;14;6.03333750398;NA;3;None;NA;[];0;0;0;0
CSE65;15;6.30010840432;NA;3;None;NA;[];4;5;4;5
