ID;trial;stress_duration;rt;button_presses;aversive_rating;helpless_rating;control_rating;motivated_rating;frustrated_rating;interesting_rating;exhausted_rating
CC_001;1;6.52522082147;0.525217156082;1;NA;0;0;0;0;0;0
CC_001;2;6.33930486595;0.339301200562;1;NA;0;0;0;0;0;0
CC_001;3;6.42474952551;0.424745493585;1;NA;0;0;0;0;0;0
CC_001;4;6.37130885976;0.371304461294;1;NA;0;0;0;0;0;0
CC_001;5;6.45767243282;0.457668400885;1;NA;0;0;0;0;0;0
CC_001;6;6.4098493451;0.409844580096;1;NA;0;0;0;0;0;0
CC_001;7;6.40276597726;0.402761578786;1;NA;0;0;0;0;0;0
CC_001;8;6.33937780723;0.339373408762;1;NA;0;0;0;0;0;0
CC_001;9;6.32214607169;0.322141673221;1;NA;0;0;0;0;0;0
CC_001;10;6.46097201767;0.460967985743;1;NA;1;7;7;2;3;2
CC_001;11;6.35231810315;0.352314437755;1;NA;0;0;0;0;0;0
CC_001;12;6.44056422095;0.440559822478;1;NA;0;0;0;0;0;0
CC_001;13;6.44086698223;0.440862217225;1;NA;0;0;0;0;0;0
CC_001;14;6.37443250586;0.37442810739;1;NA;0;0;0;0;0;0
CC_001;15;6.42172777729;0.421723745356;1;NA;0;0;0;0;0;0
CC_001;16;6.35615943277;0.356155400843;1;NA;0;0;0;0;0;0
CC_001;17;6.4947438295;0.494739431028;1;NA;0;0;0;0;0;0
CC_001;18;6.42010510875;0.420101076818;1;NA;0;0;0;0;0;0
CC_001;19;6.40702112951;0.407017097582;1;NA;0;0;0;0;0;0
CC_001;20;6.32229855195;0.32229452002;1;NA;1;7;6;1;3;1
CC_001;21;6.49172098165;0.49171694972;1;NA;0;0;0;0;0;0
CC_001;22;6.44052096933;0.440516937404;1;NA;0;0;0;0;0;0
CC_001;23;6.40625689552;0.406252863586;1;NA;0;0;0;0;0;0
CC_001;24;6.37314961906;0.373145587126;1;NA;0;0;0;0;0;0
CC_001;25;6.44340269963;0.443398667704;1;NA;0;0;0;0;0;0
CC_001;26;6.48818937755;0.488184979082;1;NA;0;0;0;0;0;0
CC_001;27;6.38989202492;0.389887992986;1;NA;0;0;0;0;0;0
CC_001;28;6.42731639874;0.42731200027;1;NA;0;0;0;0;0;0
CC_001;29;6.37298101108;0.372976979146;1;NA;0;0;0;0;0;0
CC_001;30;6.45735097804;0.457346579567;1;NA;1;7;6;1;1;1
CC_001;31;6.51184251135;0.511838845959;1;NA;0;0;0;0;0;0
CC_001;32;6.41961504599;0.419611014059;1;NA;0;0;0;0;0;0
CC_001;33;6.37323428958;0.373230624194;1;NA;0;0;0;0;0;0
CC_001;34;6.37299090763;0.372986142623;1;NA;0;0;0;0;0;0
CC_001;35;6.40925591832;0.409251886394;1;NA;0;0;0;0;0;0
CC_001;36;6.43760331821;0.437599286275;1;NA;0;0;0;0;0;0
CC_001;37;6.39005000326;0.390045971332;1;NA;0;0;0;0;0;0
CC_001;38;6.46129970362;0.461295305147;1;NA;0;0;0;0;0;0
CC_001;39;6.52552431584;0.525520283907;1;NA;0;0;0;0;0;0
CC_001;40;6.42376683422;0.423762802294;1;NA;1;7;5;1;1;1
CC_002;1;6.85010140196;0.850097003538;1;NA;0;0;0;0;0;0
CC_002;2;6.50859616655;0.508591768133;1;NA;0;0;0;0;0;0
CC_002;3;6.44090041569;0.4408963838;1;NA;0;0;0;0;0;0
CC_002;4;6.47729149554;0.477287097118;1;NA;0;0;0;0;0;0
CC_002;5;6.42074391249;0.420739880605;1;NA;0;0;0;0;0;0
CC_002;6;6.4746256851;0.474621653213;1;NA;0;0;0;0;0;0
CC_002;7;6.45997930542;0.459974907001;1;NA;0;0;0;0;0;0
CC_002;8;6.42094000882;0.420935610397;1;NA;0;0;0;0;0;0
CC_002;9;6.37311889559;0.373114863698;1;NA;0;0;0;0;0;0
CC_002;10;6.42829893584;0.428294903951;1;NA;3;4;5;3;6;4
CC_002;11;6.49004178868;0.49003775679;1;NA;0;0;0;0;0;0
CC_002;12;6.42389611513;0.423890983638;1;NA;0;0;0;0;0;0
CC_002;13;6.42477506652;0.42477103463;1;NA;0;0;0;0;0;0
CC_002;14;6.48996664896;0.489962250541;1;NA;0;0;0;0;0;0
CC_002;15;6.71256970125;0.712565669361;1;NA;0;0;0;0;0;0
CC_002;16;6.40539231911;0.405387920686;1;NA;0;0;0;0;0;0
CC_002;17;6.45795383196;0.457949800074;1;NA;0;0;0;0;0;0
CC_002;18;6.40860500005;0.40860060163;1;NA;0;0;0;0;0;0
CC_002;19;6.50597653955;0.505972874197;1;NA;0;0;0;0;0;0
CC_002;20;6.32212065532;0.322116623434;1;NA;2;5;5;2;6;4
CC_002;21;6.356161145;0.356157479646;1;NA;0;0;0;0;0;0
CC_002;22;6.35612669069;0.356121925732;1;NA;0;0;0;0;0;0
CC_002;23;6.35756717399;0.357562775566;1;NA;0;0;0;0;0;0
CC_002;24;6.42164485599;0.421641190638;1;NA;0;0;0;0;0;0
CC_002;25;6.4578834572;0.457879058782;1;NA;0;0;0;0;0;0
CC_002;26;6.39261490237;0.392610503945;1;NA;0;0;0;0;0;0
CC_002;27;6.47137378489;0.471369753002;1;NA;0;0;0;0;0;0
CC_002;28;6.44088832003;0.440884288139;1;NA;0;0;0;0;0;0
CC_002;29;6.4596853442;0.459680945778;1;NA;0;0;0;0;0;0
CC_002;30;6.30237540461;0.302371372723;1;NA;2;6;5;2;6;4
CC_002;31;6.40683683429;0.406832802407;1;NA;0;0;0;0;0;0
CC_002;32;6.39111284116;0.391108442735;1;NA;0;0;0;0;0;0
CC_002;33;6.54042974785;0.540425349427;1;NA;0;0;0;0;0;0
CC_002;34;6.44088575428;0.440881722393;1;NA;0;0;0;0;0;0
CC_002;35;6.37387395808;0.373870292726;1;NA;0;0;0;0;0;0
CC_002;36;6.42235776694;0.422353368513;1;NA;0;0;0;0;0;0
CC_002;37;6.40693799801;0.406933966119;1;NA;0;0;0;0;0;0
CC_002;38;6.44304904497;0.443045379622;1;NA;0;0;0;0;0;0
CC_002;39;6.38709964736;0.38709561547;1;NA;0;0;0;0;0;0
CC_002;40;6.37313502313;0.373130991246;1;NA;2;6;6;2;6;3
CC_003;1;6.38656673308;0.386562701139;1;NA;0;0;0;0;0;0
CC_003;2;6.33927788603;0.339273487544;1;NA;0;0;0;0;0;0
CC_003;3;6.28841563632;0.288411604377;1;NA;0;0;0;0;0;0
CC_003;4;6.30532744523;0.305323413284;1;NA;0;0;0;0;0;0
CC_003;5;6.40884432735;0.408840295402;1;NA;0;0;0;0;0;0
CC_003;6;6.28525789052;0.285253858571;1;NA;0;0;0;0;0;0
CC_003;7;6.3045221559;0.304518123958;1;NA;0;0;0;0;0;0
CC_003;8;6.35599066348;0.355986264997;1;NA;0;0;0;0;0;0
CC_003;9;6.40700722671;0.407002828226;1;NA;0;0;0;0;0;0
CC_003;10;6.34142361371;0.341419581763;1;NA;1;5;5;2;1;2
CC_003;11;6.3421189409;0.342114908959;1;NA;0;0;0;0;0;0
CC_003;12;6.31830187683;0.318298211429;1;NA;0;0;0;0;0;0
CC_003;13;6.4230041507;0.423000118759;1;NA;0;0;0;0;0;0
CC_003;14;6.33923793312;0.339233901178;1;NA;0;0;0;0;0;0
CC_003;15;6.3941343268;0.394129928319;1;NA;0;0;0;0;0;0
CC_003;16;6.4919375767;0.491933544754;1;NA;0;0;0;0;0;0
CC_003;17;6.33909095041;0.339086918465;1;NA;0;0;0;0;0;0
CC_003;18;6.27143125241;0.271427220465;1;NA;0;0;0;0;0;0
CC_003;19;6.35614387738;0.356139478897;1;NA;0;0;0;0;0;0
CC_003;20;6.34143424338;0.341430211435;1;NA;1;4;3;2;1;2
CC_003;21;6.32211133152;0.322107299579;1;NA;0;0;0;0;0;0
CC_003;22;6.28838448039;0.2883800819;1;NA;0;0;0;0;0;0
CC_003;23;6.29168297772;0.29167857923;1;NA;0;0;0;0;0;0
CC_003;24;6.35601558823;0.356011556287;1;NA;0;0;0;0;0;0
CC_003;25;6.30461305793;0.304609025985;1;NA;0;0;0;0;0;0
CC_003;26;6.28840647281;0.288402807406;1;NA;0;0;0;0;0;0
CC_003;27;6.32227077661;0.322266744667;1;NA;0;0;0;0;0;0
CC_003;28;6.33915179612;0.339147764177;1;NA;0;0;0;0;0;0
CC_003;29;6.35760710678;0.357603074834;1;NA;0;0;0;0;0;0
CC_003;30;6.4044106543;0.404406255819;1;NA;1;6;1;4;1;2
CC_003;31;6.29159720726;0.29159317531;1;NA;0;0;0;0;0;0
CC_003;32;6.35597673495;0.355972703001;1;NA;0;0;0;0;0;0
CC_003;33;6.32163409588;0.321629697399;1;NA;0;0;0;0;0;0
CC_003;34;6.35597526878;0.355971236839;1;NA;0;0;0;0;0;0
CC_003;35;6.39014380114;0.390139402656;1;NA;0;0;0;0;0;0
CC_003;36;6.55962623139;0.559622565988;1;NA;0;0;0;0;0;0
CC_003;37;6.32215238405;0.322148352108;1;NA;0;0;0;0;0;0
CC_003;38;6.3050814966;0.305076731574;1;NA;0;0;0;0;0;0
CC_003;39;6.3728599537;0.372855555213;1;NA;0;0;0;0;0;0
CC_003;40;6.49173927833;0.491735612922;1;NA;1;6;1;4;1;3
CC_004;1;6.43744506536;0.437441033457;1;NA;0;0;0;0;0;0
CC_004;2;6.32225990216;0.322255870264;1;NA;0;0;0;0;0;0
CC_004;3;6.3221011919;0.322096793466;1;NA;0;0;0;0;0;0
CC_004;4;6.34312608632;0.343122054422;1;NA;0;0;0;0;0;0
CC_004;5;6.34002298916;0.340018957263;1;NA;0;0;0;0;0;0
CC_004;6;6.33927268915;0.339268657252;1;NA;0;0;0;0;0;0
CC_004;7;6.37311719415;0.373113162249;1;NA;0;0;0;0;0;0
CC_004;8;6.28842895901;0.288424927115;1;NA;0;0;0;0;0;0
CC_004;9;6.30535304419;0.305349012294;1;NA;0;0;0;0;0;0
CC_004;10;6.32371175284;0.323707720942;1;NA;2;7;6;1;3;3
CC_004;11;6.37314248516;0.373138453261;1;NA;0;0;0;0;0;0
CC_004;12;6.40671428708;0.406709888639;1;NA;0;0;0;0;0;0
CC_004;13;6.32405226516;0.324048233258;1;NA;0;0;0;0;0;0
CC_004;14;6.35354158465;0.35353791929;1;NA;0;0;0;0;0;0
CC_004;15;6.42390411115;0.423900079245;1;NA;0;0;0;0;0;0
CC_004;16;6.339230904;0.339226505567;1;NA;0;0;0;0;0;0
CC_004;17;6.3417603717;0.341756339797;1;NA;0;0;0;0;0;0
CC_004;18;6.35237343315;0.352369401248;1;NA;0;0;0;0;0;0
CC_004;19;6.45777060833;0.457766576425;1;NA;0;0;0;0;0;0
CC_004;20;6.28842749287;0.288423827505;1;NA;1;7;5;1;2;2
CC_004;21;6.35684664337;0.356842978006;1;NA;0;0;0;0;0;0
CC_004;22;6.33756646221;0.337562430312;1;NA;0;0;0;0;0;0
CC_004;23;6.32227896206;0.322275296693;1;NA;0;0;0;0;0;0
CC_004;24;6.40686126817;0.406857236272;1;NA;0;0;0;0;0;0
CC_004;25;6.37498103174;0.374976999841;1;NA;0;0;0;0;0;0
CC_004;26;6.31950611419;0.319501715757;1;NA;0;0;0;0;0;0
CC_004;27;6.39007646682;0.390072068387;1;NA;0;0;0;0;0;0
CC_004;28;6.33928808368;0.339284418318;1;NA;0;0;0;0;0;0
CC_004;29;6.30526874082;0.305265075459;1;NA;0;0;0;0;0;0
CC_004;30;6.37373957296;0.373735541055;1;NA;1;7;4;1;2;1
CC_004;31;6.37300173518;0.372997336746;1;NA;0;0;0;0;0;0
CC_004;32;6.35798693811;0.357983272745;1;NA;0;0;0;0;0;0
CC_004;33;6.35307021884;0.353066186944;1;NA;0;0;0;0;0;0
CC_004;34;6.3731186603;0.373114628394;1;NA;0;0;0;0;0;0
CC_004;35;6.45780323007;0.457798465092;1;NA;0;0;0;0;0;0
CC_004;36;6.34078978331;0.340785751411;1;NA;0;0;0;0;0;0
CC_004;37;6.35364788021;0.35364384831;1;NA;0;0;0;0;0;0
CC_004;38;6.32209679347;0.322092761566;1;NA;0;0;0;0;0;0
CC_004;39;6.35599188049;0.355987482049;1;NA;0;0;0;0;0;0
CC_004;40;6.35978186686;0.359777468421;1;NA;1;7;4;1;2;1
CC_005;1;6.79676396116;0.796759562673;1;NA;0;0;0;0;0;0
CC_005;2;6.35618053142;0.356176132939;1;NA;0;0;0;0;0;0
CC_005;3;6.45784088627;0.457836854321;1;NA;0;0;0;0;0;0
CC_005;4;6.49186830056;0.491864635153;1;NA;0;0;0;0;0;0
CC_005;5;6.42415948614;0.424155454194;1;NA;0;0;0;0;0;0
CC_005;6;6.45767630961;0.457671911127;1;NA;0;0;0;0;0;0
CC_005;7;6.47473986626;0.474735101231;1;NA;0;0;0;0;0;0
CC_005;8;6.55935462493;0.559349859908;1;NA;0;0;0;0;0;0
CC_005;9;6.39374945935;0.393745060867;1;NA;0;0;0;0;0;0
CC_005;10;6.32332531343;0.323321648025;1;NA;4;4;4;4;4;4
CC_005;11;6.407032518;0.407028486055;1;NA;0;0;0;0;0;0
CC_005;12;6.35613727965;0.356133247709;1;NA;0;0;0;0;0;0
CC_005;13;6.45798640282;0.457982004331;1;NA;0;0;0;0;0;0
CC_005;14;6.47489857826;0.474894546318;1;NA;0;0;0;0;0;0
CC_005;15;6.33924196507;0.339237933123;1;NA;0;0;0;0;0;0
CC_005;16;6.3257873655;0.325783700094;1;NA;0;0;0;0;0;0
CC_005;17;6.33934056444;0.339336532498;1;NA;0;0;0;0;0;0
CC_005;18;6.52445081247;0.524446413989;1;NA;0;0;0;0;0;0
CC_005;19;6.40683238693;0.40682798844;1;NA;0;0;0;0;0;0
CC_005;20;6.39118037748;0.391176712074;1;NA;4;4;4;4;4;4
CC_005;21;6.37519371662;0.375189318132;1;NA;0;0;0;0;0;0
CC_005;22;6.40367830652;0.403673541499;1;NA;0;0;0;0;0;0
CC_005;23;6.44091184996;0.440908184554;1;NA;0;0;0;0;0;0
CC_005;24;6.37317481193;0.373170413442;1;NA;0;0;0;0;0;0
CC_005;25;6.39066868704;0.390664288553;1;NA;0;0;0;0;0;0
CC_005;26;6.57453159798;0.574527199499;1;NA;0;0;0;0;0;0
CC_005;27;6.37300766949;0.373003637547;1;NA;0;0;0;0;0;0
CC_005;28;6.30842727765;0.30842287916;1;NA;0;0;0;0;0;0
CC_005;29;6.41978959113;0.419785192646;1;NA;0;0;0;0;0;0
CC_005;30;6.40706367394;0.407059641992;1;NA;4;4;4;3;4;4
CC_005;31;6.49179829133;0.49179425939;1;NA;0;0;0;0;0;0
CC_005;32;6.37324921964;0.37324518769;1;NA;0;0;0;0;0;0
CC_005;33;6.27149576353;0.271491731581;1;NA;0;0;0;0;0;0
CC_005;34;6.32232429151;0.32232025957;1;NA;0;0;0;0;0;0
CC_005;35;6.44211776797;0.44211373603;1;NA;0;0;0;0;0;0
CC_005;36;6.38766782054;0.387664155131;1;NA;0;0;0;0;0;0
CC_005;37;6.40699256509;0.406988533149;1;NA;0;0;0;0;0;0
CC_005;38;6.39010568094;0.390101648992;1;NA;0;0;0;0;0;0
CC_005;39;6.3739896313;0.3739859659;1;NA;0;0;0;0;0;0
CC_005;40;6.35432437069;0.354320705283;1;NA;4;4;4;4;3;4
CC_006;1;6.52390222196;0.523898556627;1;NA;0;0;0;0;0;0
CC_006;2;6.51164899546;0.511644597053;1;NA;0;0;0;0;0;0
CC_006;3;6.49183380916;0.491829410749;1;NA;0;0;0;0;0;0
CC_006;4;6.54267571908;0.542671687203;1;NA;0;0;0;0;0;0
CC_006;5;6.4413456044;0.441341572525;1;NA;0;0;0;0;0;0
CC_006;6;6.43955472002;0.439550688148;1;NA;0;0;0;0;0;0
CC_006;7;6.4577571574;0.457752758992;1;NA;0;0;0;0;0;0
CC_006;8;6.47454330799;0.474538909583;1;NA;0;0;0;0;0;0
CC_006;9;6.3892563798;0.389252714458;1;NA;0;0;0;0;0;0
CC_006;10;6.39001400526;0.390009240318;1;NA;5;7;5;4;2;1
CC_006;11;6.45771793828;0.457713539869;1;NA;0;0;0;0;0;0
CC_006;12;6.40891468961;0.408910657741;1;NA;0;0;0;0;0;0
CC_006;13;6.45510821729;0.455104185413;1;NA;0;0;0;0;0;0
CC_006;14;6.42397263312;0.423968234711;1;NA;0;0;0;0;0;0
CC_006;15;6.35966317006;0.359659138184;1;NA;0;0;0;0;0;0
CC_006;16;6.39005212478;0.390047726372;1;NA;0;0;0;0;0;0
CC_006;17;6.45767432075;0.457669922343;1;NA;0;0;0;0;0;0
CC_006;18;6.40699002038;0.406985621977;1;NA;0;0;0;0;0;0
CC_006;19;6.37407014945;0.374066117574;1;NA;0;0;0;0;0;0
CC_006;20;6.33710850978;0.337104111373;1;NA;2;6;5;4;1;1
CC_006;21;6.49184333903;0.491838207561;1;NA;0;0;0;0;0;0
CC_006;22;6.35778028568;0.357775887277;1;NA;0;0;0;0;0;0
CC_006;23;6.31961055046;0.319606518584;1;NA;0;0;0;0;0;0
CC_006;24;6.35640981563;0.356405417224;1;NA;0;0;0;0;0;0
CC_006;25;6.32231190491;0.322307873037;1;NA;0;0;0;0;0;0
CC_006;26;6.3936844752;0.39368044333;1;NA;0;0;0;0;0;0
CC_006;27;6.37290017341;0.372896141535;1;NA;0;0;0;0;0;0
CC_006;28;6.40669972558;0.406695693703;1;NA;0;0;0;0;0;0
CC_006;29;6.42397996379;0.423975931922;1;NA;0;0;0;0;0;0
CC_006;30;6.42490802749;0.424903995622;1;NA;2;6;4;3;1;1
CC_006;31;6.49167253426;0.491667402789;1;NA;0;0;0;0;0;0
CC_006;32;6.37345107378;0.373447041907;1;NA;0;0;0;0;0;0
CC_006;33;6.33787126672;0.337867234843;1;NA;0;0;0;0;0;0
CC_006;34;6.40696179728;0.40695739887;1;NA;0;0;0;0;0;0
CC_006;35;6.41044203615;0.410437637748;1;NA;0;0;0;0;0;0
CC_006;36;6.42382491998;0.423820888104;1;NA;0;0;0;0;0;0
CC_006;37;6.28841522127;0.288410822865;1;NA;0;0;0;0;0;0
CC_006;38;6.47492267052;0.47491863865;1;NA;0;0;0;0;0;0
CC_006;39;6.292169994;0.292165962128;1;NA;0;0;0;0;0;0
CC_006;40;6.35639332161;0.3563889232;1;NA;2;7;3;5;1;1
CC_007;1;6.37421759055;0.37421392523;1;NA;0;0;0;0;0;0
CC_007;2;6.31965739474;0.319652996348;1;NA;0;0;0;0;0;0
CC_007;3;6.34461092758;0.34460652919;1;NA;0;0;0;0;0;0
CC_007;4;6.30792688849;0.307922856637;1;NA;0;0;0;0;0;0
CC_007;5;6.28463851282;0.284634114427;1;NA;0;0;0;0;0;0
CC_007;6;6.30437628813;0.304372622807;1;NA;0;0;0;0;0;0
CC_007;7;6.28839363832;0.288389606458;1;NA;0;0;0;0;0;0
CC_007;8;6.30529335246;0.3052893206;1;NA;0;0;0;0;0;0
CC_007;9;6.30964262714;0.309638595286;1;NA;0;0;0;0;0;0
CC_007;10;6.31296634389;0.312962312029;1;NA;1;7;6;1;5;2
CC_007;11;6.32227663601;0.322272604151;1;NA;0;0;0;0;0;0
CC_007;12;6.25446592366;0.254462258331;1;NA;0;0;0;0;0;0
CC_007;13;6.32491017205;0.324906506722;1;NA;0;0;0;0;0;0
CC_007;14;6.28472134916;0.284716950772;1;NA;0;0;0;0;0;0
CC_007;15;6.30463432702;0.304630295158;1;NA;0;0;0;0;0;0
CC_007;16;6.33918624653;0.339181481605;1;NA;0;0;0;0;0;0
CC_007;17;6.37859142292;0.378587024529;1;NA;0;0;0;0;0;0
CC_007;18;6.2945425876;0.294538555738;1;NA;0;0;0;0;0;0
CC_007;19;6.3349278719;0.334923473511;1;NA;0;0;0;0;0;0
CC_007;20;6.38185942672;0.381855394863;1;NA;1;6;5;1;4;2
CC_007;21;6.39014599356;0.390141961704;1;NA;0;0;0;0;0;0
CC_007;22;6.4070174847;0.407013452843;1;NA;0;0;0;0;0;0
CC_007;23;6.33918331427;0.33917928241;1;NA;0;0;0;0;0;0
CC_007;24;6.39281618285;0.392812150993;1;NA;0;0;0;0;0;0
CC_007;25;6.32868105844;0.328677026586;1;NA;0;0;0;0;0;0
CC_007;26;6.31775619064;0.317752158785;1;NA;0;0;0;0;0;0
CC_007;27;6.35601008844;0.356006056583;1;NA;0;0;0;0;0;0
CC_007;28;6.37315391323;0.373148781774;1;NA;0;0;0;0;0;0
CC_007;29;6.39030140334;0.390297371486;1;NA;0;0;0;0;0;0
CC_007;30;6.33792794044;0.337923175521;1;NA;1;5;4;2;4;3
CC_007;31;6.39268166542;0.392677633564;1;NA;0;0;0;0;0;0
CC_007;32;6.38785259969;0.38784856783;1;NA;0;0;0;0;0;0
CC_007;33;6.33328617282;0.33328214096;1;NA;0;0;0;0;0;0
CC_007;34;6.39446118073;0.394457148868;1;NA;0;0;0;0;0;0
CC_007;35;6.3040376121;0.304033213709;1;NA;0;0;0;0;0;0
CC_007;36;6.368663157;0.368658758605;1;NA;0;0;0;0;0;0
CC_007;37;6.39662079024;0.396616391847;1;NA;0;0;0;0;0;0
CC_007;38;6.36980563881;0.369801606952;1;NA;0;0;0;0;0;0
CC_007;39;6.32204352134;0.322039856011;1;NA;0;0;0;0;0;0
CC_007;40;6.3731209253;0.373117259978;1;NA;1;5;4;2;4;4
CC_008;1;6.30536147454;0.305357442645;1;NA;0;0;0;0;0;0
CC_008;2;6.25463503605;0.254630637617;1;NA;0;0;0;0;0;0
CC_008;3;6.25726786701;0.257263835112;1;NA;0;0;0;0;0;0
CC_008;4;6.25178448245;0.251780450548;1;NA;0;0;0;0;0;0
CC_008;5;6.25276716653;0.252763501194;1;NA;0;0;0;0;0;0
CC_008;6;6.30541572193;0.305411323468;1;NA;0;0;0;0;0;0
CC_008;7;6.271435965;0.271431933099;1;NA;0;0;0;0;0;0
CC_008;8;6.32227383053;0.322269432101;1;NA;0;0;0;0;0;0
CC_008;9;6.25457785637;0.254572724865;1;NA;0;0;0;0;0;0
CC_008;10;6.27512002236;0.275115990458;1;NA;2;6;2;3;1;2
CC_008;11;6.30739245273;0.307387687761;1;NA;0;0;0;0;0;0
CC_008;12;6.31912125097;0.319117585634;1;NA;0;0;0;0;0;0
CC_008;13;6.30534094849;0.305336550053;1;NA;0;0;0;0;0;0
CC_008;14;6.45785747748;0.45785344555;1;NA;0;0;0;0;0;0
CC_008;15;6.27115446504;0.271150433138;1;NA;0;0;0;0;0;0
CC_008;16;6.25775316119;0.25774912929;1;NA;0;0;0;0;0;0
CC_008;17;6.44098140855;0.440977376624;1;NA;0;0;0;0;0;0
CC_008;18;6.25451078021;0.254507114849;1;NA;0;0;0;0;0;0
CC_008;19;6.32229472313;0.322290691227;1;NA;0;0;0;0;0;0
CC_008;20;6.28821306909;0.288209037186;1;NA;2;6;1;2;1;2
CC_008;21;6.33923786817;0.339233836276;1;NA;0;0;0;0;0;0
CC_008;22;6.3052735058;0.305269473902;1;NA;0;0;0;0;0;0
CC_008;23;6.29128244487;0.291278412973;1;NA;0;0;0;0;0;0
CC_008;24;6.30161877137;0.301614372933;1;NA;0;0;0;0;0;0
CC_008;25;6.25320554408;0.25320114565;1;NA;0;0;0;0;0;0
CC_008;26;6.27148837969;0.271484347788;1;NA;0;0;0;0;0;0
CC_008;27;6.28825741998;0.288253021543;1;NA;0;0;0;0;0;0
CC_008;28;6.27127762127;0.271273589373;1;NA;0;0;0;0;0;0
CC_008;29;6.25450271639;0.254498684488;1;NA;0;0;0;0;0;0
CC_008;30;6.29212951049;0.292125478591;1;NA;2;6;1;2;1;3
CC_008;31;6.271420937;0.271416905103;1;NA;0;0;0;0;0;0
CC_008;32;6.34054530354;0.340541271638;1;NA;0;0;0;0;0;0
CC_008;33;6.3877339327;0.387729534239;1;NA;0;0;0;0;0;0
CC_008;34;6.30538163404;0.305377968674;1;NA;0;0;0;0;0;0
CC_008;35;6.30533691662;0.30533325125;1;NA;0;0;0;0;0;0
CC_008;36;6.28836848051;0.288364448614;1;NA;0;0;0;0;0;0
CC_008;37;6.30783669485;0.307832662947;1;NA;0;0;0;0;0;0
CC_008;38;6.3183500584;0.318345659965;1;NA;0;0;0;0;0;0
CC_008;39;6.37260037783;0.372596712463;1;NA;0;0;0;0;0;0
CC_008;40;6.37316594349;0.373161911586;1;NA;2;5;1;5;1;5
CC_009;1;6.4036232989;0.403619266983;1;NA;0;0;0;0;0;0
CC_009;2;6.3222691472;0.322264748746;1;NA;0;0;0;0;0;0
CC_009;3;6.30543076982;0.305426737902;1;NA;0;0;0;0;0;0
CC_009;4;6.35611634201;0.356111943559;1;NA;0;0;0;0;0;0
CC_009;5;6.4238657123;0.423861680385;1;NA;0;0;0;0;0;0
CC_009;6;6.33845582047;0.33845142202;1;NA;0;0;0;0;0;0
CC_009;7;6.33899206519;0.338988033275;1;NA;0;0;0;0;0;0
CC_009;8;6.30510051931;0.305096487396;1;NA;0;0;0;0;0;0
CC_009;9;6.34264278111;0.34263838266;1;NA;0;0;0;0;0;0
CC_009;10;6.28952926291;0.28952559753;1;NA;1;6;3;5;1;2
CC_009;11;6.47718045973;0.477176427811;1;NA;0;0;0;0;0;0
CC_009;12;6.36982631976;0.369821921303;1;NA;0;0;0;0;0;0
CC_009;13;6.33901515707;0.339010392078;1;NA;0;0;0;0;0;0
CC_009;14;6.28850039146;0.288495626472;1;NA;0;0;0;0;0;0
CC_009;15;6.32205252339;0.322048124939;1;NA;0;0;0;0;0;0
CC_009;16;6.39192524683;0.391921214911;1;NA;0;0;0;0;0;0
CC_009;17;6.31956299904;0.319558600588;1;NA;0;0;0;0;0;0
CC_009;18;6.28850515645;0.288501124538;1;NA;0;0;0;0;0;0
CC_009;19;6.28842158585;0.288417187395;1;NA;0;0;0;0;0;0
CC_009;20;6.37316511206;0.373161080142;1;NA;4;6;1;2;1;2
CC_009;21;6.39013727572;0.390132877263;1;NA;0;0;0;0;0;0
CC_009;22;6.3890222679;0.389017869448;1;NA;0;0;0;0;0;0
CC_009;23;6.40691114245;0.406906744001;1;NA;0;0;0;0;0;0
CC_009;24;6.28838566515;0.288380900158;1;NA;0;0;0;0;0;0
CC_009;25;6.4409023866;0.440898354685;1;NA;0;0;0;0;0;0
CC_009;26;6.32142684346;0.321422445012;1;NA;0;0;0;0;0;0
CC_009;27;6.28847180152;0.288467403066;1;NA;0;0;0;0;0;0
CC_009;28;6.4409577338;0.440953335347;1;NA;0;0;0;0;0;0
CC_009;29;6.3415365702;0.341532538288;1;NA;0;0;0;0;0;0
CC_009;30;6.30198348234;0.301979450428;1;NA;6;6;1;7;1;2
CC_009;31;6.35857581027;0.358571778353;1;NA;0;0;0;0;0;0
CC_009;32;6.35268481566;0.352680417208;1;NA;0;0;0;0;0;0
CC_009;33;6.33920905554;0.33920502362;1;NA;0;0;0;0;0;0
CC_009;34;6.27146591639;0.271461884473;1;NA;0;0;0;0;0;0
CC_009;35;6.35621970566;0.356215673741;1;NA;0;0;0;0;0;0
CC_009;36;6.34186901994;0.341864988022;1;NA;0;0;0;0;0;0
CC_009;37;6.4203355873;0.420331188843;1;NA;0;0;0;0;0;0
CC_009;38;6.40708451481;0.407080116353;1;NA;0;0;0;0;0;0
CC_009;39;6.35622080527;0.356216773353;1;NA;0;0;0;0;0;0
CC_009;40;6.30839056209;0.308386530178;1;NA;6;3;1;6;1;2
CC_010;1;6.50797519748;0.507971165621;1;NA;0;0;0;0;0;0
CC_010;2;6.33915912312;0.339153625135;1;NA;0;0;0;0;0;0
CC_010;3;6.37479891111;0.374794879248;1;NA;0;0;0;0;0;0
CC_010;4;6.37048079168;0.370476026758;1;NA;0;0;0;0;0;0
CC_010;5;6.40703067987;0.407027014545;1;NA;0;0;0;0;0;0
CC_010;6;6.35620838252;0.356204350667;1;NA;0;0;0;0;0;0
CC_010;7;6.40734149943;0.407337834108;1;NA;0;0;0;0;0;0
CC_010;8;6.40582625406;0.405822222206;1;NA;0;0;0;0;0;0
CC_010;9;6.32221102669;0.322207361366;1;NA;0;0;0;0;0;0
CC_010;10;6.37319239914;0.373187634219;1;NA;1;6;2;1;4;5
CC_010;11;6.44045074701;0.440446715154;1;NA;0;0;0;0;0;0
CC_010;12;6.33920897154;0.339205306218;1;NA;0;0;0;0;0;0
CC_010;13;6.34284167519;0.342837643328;1;NA;0;0;0;0;0;0
CC_010;14;6.39022809684;0.390224064985;1;NA;0;0;0;0;0;0
CC_010;15;6.35628608742;0.356282055559;1;NA;0;0;0;0;0;0
CC_010;16;6.40704497464;0.40704094278;1;NA;0;0;0;0;0;0
CC_010;17;6.4254683644;0.425463966007;1;NA;0;0;0;0;0;0
CC_010;18;6.4214595984;0.421455566548;1;NA;0;0;0;0;0;0
CC_010;19;6.30516066769;0.3051562693;1;NA;0;0;0;0;0;0
CC_010;20;6.46210438772;0.462100722399;1;NA;1;6;2;1;5;5
CC_010;21;6.33926028609;0.339256620768;1;NA;0;0;0;0;0;0
CC_010;22;6.32600610423;0.326002072375;1;NA;0;0;0;0;0;0
CC_010;23;6.30618146071;0.306177428854;1;NA;0;0;0;0;0;0
CC_010;24;6.37138282817;0.371378796314;1;NA;0;0;0;0;0;0
CC_010;25;6.33921556913;0.339211537271;1;NA;0;0;0;0;0;0
CC_010;26;6.35633483624;0.356330071316;1;NA;0;0;0;0;0;0
CC_010;27;6.39108285064;0.391078818782;1;NA;0;0;0;0;0;0
CC_010;28;6.33715822219;0.337154556861;1;NA;0;0;0;0;0;0
CC_010;29;6.39014342783;0.390139395976;1;NA;0;0;0;0;0;0
CC_010;30;6.33916572071;0.33916168885;1;NA;1;5;2;1;5;5
CC_010;31;6.49394689897;0.49394250058;1;NA;0;0;0;0;0;0
CC_010;32;6.49175760033;0.491753568469;1;NA;0;0;0;0;0;0
CC_010;33;6.37621189391;0.376207862049;1;NA;0;0;0;0;0;0
CC_010;34;6.36906304396;0.369058279035;1;NA;0;0;0;0;0;0
CC_010;35;6.28828477816;0.288280379772;1;NA;0;0;0;0;0;0
CC_010;36;6.30537472267;0.305370690814;1;NA;0;0;0;0;0;0
CC_010;37;6.44076853069;0.440764498835;1;NA;0;0;0;0;0;0
CC_010;38;6.39020903715;0.390205371828;1;NA;0;0;0;0;0;0
CC_010;39;6.49059385963;0.49058982777;1;NA;0;0;0;0;0;0
CC_010;40;6.37317260639;0.37316857453;1;NA;1;6;2;1;5;5
CC_011;1;6.54276661947;0.542762954131;1;NA;0;0;0;0;0;0
CC_011;2;6.34076431837;0.340760286497;1;NA;0;0;0;0;0;0
CC_011;3;6.46018361147;0.460179579593;1;NA;0;0;0;0;0;0
CC_011;4;6.36152369586;0.361519663991;1;NA;0;0;0;0;0;0
CC_011;5;6.360431425;0.360427393127;1;NA;0;0;0;0;0;0
CC_011;6;6.37675940828;0.376755742944;1;NA;0;0;0;0;0;0
CC_011;7;6.28859995433;0.288595922457;1;NA;0;0;0;0;0;0
CC_011;8;6.4129700201;0.412966354758;1;NA;0;0;0;0;0;0
CC_011;9;6.33074621526;0.330741816857;1;NA;0;0;0;0;0;0
CC_011;10;6.30587469454;0.305870662668;1;NA;4;5;5;2;5;4
CC_011;11;6.37901872292;0.379014691043;1;NA;0;0;0;0;0;0
CC_011;12;6.35946157644;0.359457178034;1;NA;0;0;0;0;0;0
CC_011;13;6.39340371028;0.393399678403;1;NA;0;0;0;0;0;0
CC_011;14;6.37766547995;0.37766144808;1;NA;0;0;0;0;0;0
CC_011;15;6.30528787385;0.305283841978;1;NA;0;0;0;0;0;0
CC_011;16;6.34371821464;0.34371418277;1;NA;0;0;0;0;0;0
CC_011;17;6.42339570884;0.423392043504;1;NA;0;0;0;0;0;0
CC_011;18;6.37775491421;0.377750515805;1;NA;0;0;0;0;0;0
CC_011;19;6.39006055506;0.390056523184;1;NA;0;0;0;0;0;0
CC_011;20;6.58145756583;0.581453533955;1;NA;2;6;5;2;4;4
CC_011;21;6.40954732703;0.409542928628;1;NA;0;0;0;0;0;0
CC_011;22;6.35569617423;0.355692142357;1;NA;0;0;0;0;0;0
CC_011;23;6.46574209726;0.465738065383;1;NA;0;0;0;0;0;0
CC_011;24;6.4470320105;0.447028345163;1;NA;0;0;0;0;0;0
CC_011;25;6.40806396455;0.408059932683;1;NA;0;0;0;0;0;0
CC_011;26;6.34468439786;0.344680365992;1;NA;0;0;0;0;0;0
CC_011;27;6.36035591903;0.36035152062;1;NA;0;0;0;0;0;0
CC_011;28;6.3427626609;0.342758629031;1;NA;0;0;0;0;0;0
CC_011;29;6.46185757154;0.461853539673;1;NA;0;0;0;0;0;0
CC_011;30;6.34163080438;0.341626772512;1;NA;2;6;4;2;3;4
CC_011;31;6.39311561467;0.393111216266;1;NA;0;0;0;0;0;0
CC_011;32;6.34268348959;0.342679091187;1;NA;0;0;0;0;0;0
CC_011;33;6.32783153811;0.327827139705;1;NA;0;0;0;0;0;0
CC_011;34;6.39431418035;0.394310148479;1;NA;0;0;0;0;0;0
CC_011;35;6.32677482103;0.326770422625;1;NA;0;0;0;0;0;0
CC_011;36;6.32632435093;0.326319952526;1;NA;0;0;0;0;0;0
CC_011;37;6.32782347437;0.327819442495;1;NA;0;0;0;0;0;0
CC_011;38;6.55119579835;0.551191766477;1;NA;0;0;0;0;0;0
CC_011;39;6.32341553832;0.323411506451;1;NA;0;0;0;0;0;0
CC_011;40;6.30899573025;0.308991331841;1;NA;2;6;5;2;3;3
CC_012;1;6.4480621445;0.448058112573;1;NA;0;0;0;0;0;0
CC_012;2;6.44656299964;0.446558967709;1;NA;0;0;0;0;0;0
CC_012;3;6.39623974882;0.396235350349;1;NA;0;0;0;0;0;0
CC_012;4;6.41096142469;0.410956659685;1;NA;0;0;0;0;0;0
CC_012;5;6.41093210157;0.410928069637;1;NA;0;0;0;0;0;0
CC_012;6;6.39072590134;0.390721869408;1;NA;0;0;0;0;0;0
CC_012;7;6.36300638291;0.363002350982;1;NA;0;0;0;0;0;0
CC_012;8;6.30671880807;0.306715142683;1;NA;0;0;0;0;0;0
CC_012;9;6.34181895755;0.34181419254;1;NA;0;0;0;0;0;0
CC_012;10;6.51228199172;0.512277959785;1;NA;1;6;5;1;4;1
CC_012;11;6.51010218377;0.510098151837;1;NA;0;0;0;0;0;0
CC_012;12;6.32677802613;0.326773627659;1;NA;0;0;0;0;0;0
CC_012;13;6.33928910477;0.339285072842;1;NA;0;0;0;0;0;0
CC_012;14;6.40865442768;0.408650395752;1;NA;0;0;0;0;0;0
CC_012;15;6.39305782301;0.393053791077;1;NA;0;0;0;0;0;0
CC_012;16;6.37807187245;0.378067473981;1;NA;0;0;0;0;0;0
CC_012;17;6.3624107569;0.362406724966;1;NA;0;0;0;0;0;0
CC_012;18;6.42967214545;0.42966774698;1;NA;0;0;0;0;0;0
CC_012;19;6.39328764301;0.393283611084;1;NA;0;0;0;0;0;0
CC_012;20;6.42986164616;0.429856881148;1;NA;1;6;5;1;4;1
CC_012;21;6.39505509449;0.39505106256;1;NA;0;0;0;0;0;0
CC_012;22;6.46307228664;0.463068254709;1;NA;0;0;0;0;0;0
CC_012;23;6.5000571801;0.500053514707;1;NA;0;0;0;0;0;0
CC_012;24;6.40896561937;0.408961220898;1;NA;0;0;0;0;0;0
CC_012;25;6.41343629661;0.413432264676;1;NA;0;0;0;0;0;0
CC_012;26;6.44844591093;0.448441512458;1;NA;0;0;0;0;0;0
CC_012;27;6.44565141693;0.445647385;1;NA;0;0;0;0;0;0
CC_012;28;6.48051771447;0.480513315998;1;NA;0;0;0;0;0;0
CC_012;29;6.44751710088;0.447513068951;1;NA;0;0;0;0;0;0
CC_012;30;6.39051990637;0.390515507902;1;NA;1;5;4;1;4;1
CC_012;31;6.74461315831;0.744608393305;1;NA;0;0;0;0;0;0
CC_012;32;6.44615650779;0.446152475862;1;NA;0;0;0;0;0;0
CC_012;33;6.43264404436;0.432640012433;1;NA;0;0;0;0;0;0
CC_012;34;6.45985114115;0.459846742678;1;NA;0;0;0;0;0;0
CC_012;35;6.51708145451;0.517077056046;1;NA;0;0;0;0;0;0
CC_012;36;6.4950579535;0.495054288104;1;NA;0;0;0;0;0;0
CC_012;37;6.37617649883;0.376172466903;1;NA;0;0;0;0;0;0
CC_012;38;6.55101197776;0.551007579295;1;NA;0;0;0;0;0;0
CC_012;39;6.30927358551;0.309269187039;1;NA;0;0;0;0;0;0
CC_012;40;6.35494692147;0.354943256084;1;NA;1;6;4;1;4;1
CC_013;1;6.6722638407;0.672260175308;1;NA;0;0;0;0;0;0
CC_013;2;6.514296124;0.514291725527;1;NA;0;0;0;0;0;0
CC_013;3;6.33003216014;0.33002776167;1;NA;0;0;0;0;0;0
CC_013;4;6.3601151226;0.360111090667;1;NA;0;0;0;0;0;0
CC_013;5;6.3091900146;0.309185982666;1;NA;0;0;0;0;0;0
CC_013;6;6.30776637678;0.307762344853;1;NA;0;0;0;0;0;0
CC_013;7;6.30549493406;0.305490535594;1;NA;0;0;0;0;0;0
CC_013;8;6.3930512253;0.393047193373;1;NA;0;0;0;0;0;0
CC_013;9;6.3411723826;0.34116835067;1;NA;0;0;0;0;0;0
CC_013;10;6.35593034584;0.355925947375;1;NA;3;7;7;1;6;1
CC_013;11;6.36239133032;0.362386931855;1;NA;0;0;0;0;0;0
CC_013;12;6.2931356026;0.293131570671;1;NA;0;0;0;0;0;0
CC_013;13;6.33923412391;0.33922972544;1;NA;0;0;0;0;0;0
CC_013;14;6.30879012045;0.308785721983;1;NA;0;0;0;0;0;0
CC_013;15;6.31104726815;0.3110421366;1;NA;0;0;0;0;0;0
CC_013;16;6.39134901779;0.391344619316;1;NA;0;0;0;0;0;0
CC_013;17;6.34787308364;0.347869051712;1;NA;0;0;0;0;0;0
CC_013;18;6.37443360548;0.374429573546;1;NA;0;0;0;0;0;0
CC_013;19;6.34515079785;0.345146765916;1;NA;0;0;0;0;0;0
CC_013;20;6.36012391953;0.360119887604;1;NA;1;7;6;1;5;1
CC_013;21;6.35693576256;0.356932097168;1;NA;0;0;0;0;0;0
CC_013;22;6.30781109455;0.307807062622;1;NA;0;0;0;0;0;0
CC_013;23;6.28883903143;0.288834999498;1;NA;0;0;0;0;0;0
CC_013;24;6.27226743278;0.272263400852;1;NA;0;0;0;0;0;0
CC_013;25;6.34374622007;0.343741821597;1;NA;0;0;0;0;0;0
CC_013;26;6.39033370452;0.390329306047;1;NA;0;0;0;0;0;0
CC_013;27;6.27701667973;0.277012647798;1;NA;0;0;0;0;0;0
CC_013;28;6.35610445191;0.356100419981;1;NA;0;0;0;0;0;0
CC_013;29;6.35870797904;0.358704313652;1;NA;0;0;0;0;0;0
CC_013;30;6.29076079586;0.290757130468;1;NA;1;7;6;1;6;1
CC_013;31;6.40994721104;0.40994354565;1;NA;0;0;0;0;0;0
CC_013;32;6.28924625635;0.289241491345;1;NA;0;0;0;0;0;0
CC_013;33;6.41285130022;0.412847268294;1;NA;0;0;0;0;0;0
CC_013;34;6.33914578799;0.339141756059;1;NA;0;0;0;0;0;0
CC_013;35;6.32606767338;0.326063641448;1;NA;0;0;0;0;0;0
CC_013;36;6.27192911721;0.271925085276;1;NA;0;0;0;0;0;0
CC_013;37;6.43191096619;0.43190656772;1;NA;0;0;0;0;0;0
CC_013;38;6.46205807299;0.462053307979;1;NA;0;0;0;0;0;0
CC_013;39;6.37700597679;0.377001944856;1;NA;0;0;0;0;0;0
CC_013;40;6.55054500697;0.550540975038;1;NA;1;7;6;1;5;1
CC_014;1;6.55327679876;0.553272766859;1;NA;0;0;0;0;0;0
CC_014;2;6.35990099119;0.359896592751;1;NA;0;0;0;0;0;0
CC_014;3;6.34210748167;0.342103083231;1;NA;0;0;0;0;0;0
CC_014;4;6.30582954151;0.305825143078;1;NA;0;0;0;0;0;0
CC_014;5;6.34127177868;0.34126738024;1;NA;0;0;0;0;0;0
CC_014;6;6.44393385924;0.44392982734;1;NA;0;0;0;0;0;0
CC_014;7;6.34550820638;0.34550344141;1;NA;0;0;0;0;0;0
CC_014;8;6.32227309747;0.322269065574;1;NA;0;0;0;0;0;0
CC_014;9;6.42981744288;0.42981341098;1;NA;0;0;0;0;0;0
CC_014;10;6.34285851475;0.342854116313;1;NA;1;7;4;1;2;1
CC_014;11;6.44016806427;0.440163665834;1;NA;0;0;0;0;0;0
CC_014;12;6.46808530915;0.468080910711;1;NA;0;0;0;0;0;0
CC_014;13;6.31396701612;0.313962617685;1;NA;0;0;0;0;0;0
CC_014;14;6.3430916319;0.343086866927;1;NA;0;0;0;0;0;0
CC_014;15;6.32693214165;0.326927743214;1;NA;0;0;0;0;0;0
CC_014;16;6.32307984409;0.323075445653;1;NA;0;0;0;0;0;0
CC_014;17;6.36332554077;0.363321508869;1;NA;0;0;0;0;0;0
CC_014;18;6.35714537054;0.357140972098;1;NA;0;0;0;0;0;0
CC_014;19;6.37925191387;0.37924788197;1;NA;0;0;0;0;0;0
CC_014;20;6.37349949161;0.373495459713;1;NA;1;7;2;1;2;1
CC_014;21;6.30975148099;0.30974744909;1;NA;0;0;0;0;0;0
CC_014;22;6.33892264689;0.338918248454;1;NA;0;0;0;0;0;0
CC_014;23;6.3129557422;0.312951710295;1;NA;0;0;0;0;0;0
CC_014;24;6.35704420649;0.357040174588;1;NA;0;0;0;0;0;0
CC_014;25;6.34475937252;0.344754607546;1;NA;0;0;0;0;0;0
CC_014;26;6.30533031894;0.305326287038;1;NA;0;0;0;0;0;0
CC_014;27;6.32497703649;0.324972638058;1;NA;0;0;0;0;0;0
CC_014;28;6.34307513776;0.343071472398;1;NA;0;0;0;0;0;0
CC_014;29;6.35990135772;0.359897325824;1;NA;0;0;0;0;0;0
CC_014;30;6.41217274714;0.412168715239;1;NA;1;7;3;1;2;1
CC_014;31;6.30629834157;0.306294309669;1;NA;0;0;0;0;0;0
CC_014;32;6.39690723917;0.39690284073;1;NA;0;0;0;0;0;0
CC_014;33;6.32254103558;0.322536637146;1;NA;0;0;0;0;0;0
CC_014;34;6.29371478043;0.293710381998;1;NA;0;0;0;0;0;0
CC_014;35;6.29040129138;0.290396892944;1;NA;0;0;0;0;0;0
CC_014;36;6.36488991812;0.364885886223;1;NA;0;0;0;0;0;0
CC_014;37;6.28905756894;0.289053170503;1;NA;0;0;0;0;0;0
CC_014;38;6.34817219294;0.348167794499;1;NA;0;0;0;0;0;0
CC_014;39;6.28991673026;0.28991269836;1;NA;0;0;0;0;0;0
CC_014;40;6.32487623898;0.324871840548;1;NA;1;7;2;1;2;1
CC_015;1;6.62704188265;0.627037850748;1;NA;0;0;0;0;0;0
CC_015;2;6.28939661511;0.28939258321;1;NA;0;0;0;0;0;0
CC_015;3;6.45109194859;0.451087916687;1;NA;0;0;0;0;0;0
CC_015;4;6.69145588991;0.691450758401;1;NA;0;0;0;0;0;0
CC_015;5;6.48450907214;0.484504673705;1;NA;0;0;0;0;0;0
CC_015;6;6.35739681451;0.357392782605;1;NA;0;0;0;0;0;0
CC_015;7;6.31062273801;0.310618706112;1;NA;0;0;0;0;0;0
CC_015;8;6.30912213799;0.309118106092;1;NA;0;0;0;0;0;0
CC_015;9;6.33426470232;0.334261036961;1;NA;0;0;0;0;0;0
CC_015;10;6.3743271308;0.37432346544;1;NA;2;7;3;3;1;3
CC_015;11;6.30039637246;0.300392707099;1;NA;0;0;0;0;0;0
CC_015;12;6.37976029986;0.379756267956;1;NA;0;0;0;0;0;0
CC_015;13;6.39098730978;0.390983277876;1;NA;0;0;0;0;0;0
CC_015;14;6.3337398222;0.3337357903;1;NA;0;0;0;0;0;0
CC_015;15;6.44274774745;0.44274371555;1;NA;0;0;0;0;0;0
CC_015;16;6.40149407567;0.401490410308;1;NA;0;0;0;0;0;0
CC_015;17;6.35114223738;0.351138205482;1;NA;0;0;0;0;0;0
CC_015;18;6.27397606224;0.273972396877;1;NA;0;0;0;0;0;0
CC_015;19;6.31722955662;0.317225524715;1;NA;0;0;0;0;0;0
CC_015;20;6.31292751889;0.312923486993;1;NA;2;7;3;4;1;3
CC_015;21;6.49773553812;0.497731506223;1;NA;0;0;0;0;0;0
CC_015;22;6.44848844054;0.448484775177;1;NA;0;0;0;0;0;0
CC_015;23;6.31714195442;0.317137922515;1;NA;0;0;0;0;0;0
CC_015;24;6.49941574098;0.499411709078;1;NA;0;0;0;0;0;0
CC_015;25;6.36628385605;0.366280190687;1;NA;0;0;0;0;0;0
CC_015;26;6.32673787736;0.326734211994;1;NA;0;0;0;0;0;0
CC_015;27;6.49776669372;0.497762661817;1;NA;0;0;0;0;0;0
CC_015;28;6.4429848965;0.4429808646;1;NA;0;0;0;0;0;0
CC_015;29;6.31860773348;0.318602968505;1;NA;0;0;0;0;0;0
CC_015;30;6.39123618799;0.391232522628;1;NA;1;7;3;3;1;4
CC_015;31;6.4904891135;0.490485081602;1;NA;0;0;0;0;0;0
CC_015;32;6.28819400918;0.288189977282;1;NA;0;0;0;0;0;0
CC_015;33;6.3106487621;0.310645096733;1;NA;0;0;0;0;0;0
CC_015;34;6.33372149538;0.33371746348;1;NA;0;0;0;0;0;0
CC_015;35;6.31059304856;0.310589016663;1;NA;0;0;0;0;0;0
CC_015;36;6.30930687234;0.309303206974;1;NA;0;0;0;0;0;0
CC_015;37;6.33398430198;0.333980270079;1;NA;0;0;0;0;0;0
CC_015;38;6.37559351407;0.375589848701;1;NA;0;0;0;0;0;0
CC_015;39;6.51049906863;0.51049503673;1;NA;0;0;0;0;0;0
CC_015;40;6.51598611853;0.515981720097;1;NA;2;6;1;5;1;6
CC_016;1;6.53128799366;0.531283595242;1;NA;0;0;0;0;0;0
CC_016;2;6.45101092238;0.451006890496;1;NA;0;0;0;0;0;0
CC_016;3;6.3901341922;0.390130160311;1;NA;0;0;0;0;0;0
CC_016;4;6.37302909446;0.373023596436;1;NA;0;0;0;0;0;0
CC_016;5;6.37341578909;0.373411390668;1;NA;0;0;0;0;0;0
CC_016;6;6.40097557006;0.400971171641;1;NA;0;0;0;0;0;0
CC_016;7;6.30528312828;0.305279462924;1;NA;0;0;0;0;0;0
CC_016;8;6.35591446681;0.355910068391;1;NA;0;0;0;0;0;0
CC_016;9;6.32212578681;0.322121388391;1;NA;0;0;0;0;0;0
CC_016;10;6.33991703842;0.339913373073;1;NA;5;6;3;5;3;5
CC_016;11;6.36882237008;0.36881797166;1;NA;0;0;0;0;0;0
CC_016;12;6.33959998548;0.339595953597;1;NA;0;0;0;0;0;0
CC_016;13;6.3938515921;0.393847193678;1;NA;0;0;0;0;0;0
CC_016;14;6.34515885818;0.345154826297;1;NA;0;0;0;0;0;0
CC_016;15;6.48497260699;0.48496820857;1;NA;0;0;0;0;0;0
CC_016;16;6.53467771111;0.534673679218;1;NA;0;0;0;0;0;0
CC_016;17;6.45454652083;0.454541389337;1;NA;0;0;0;0;0;0
CC_016;18;6.57650560744;0.576501575551;1;NA;0;0;0;0;0;0
CC_016;19;6.43856448692;0.438559721962;1;NA;0;0;0;0;0;0
CC_016;20;6.39271789876;0.392712034193;1;NA;4;6;4;4;3;4
CC_016;21;6.48380042745;0.483796395566;1;NA;0;0;0;0;0;0
CC_016;22;6.49187776345;0.491873365024;1;NA;0;0;0;0;0;0
CC_016;23;6.48867681163;0.488672413206;1;NA;0;0;0;0;0;0
CC_016;24;6.47597086925;0.475966470827;1;NA;0;0;0;0;0;0
CC_016;25;6.55737100435;0.557366605932;1;NA;0;0;0;0;0;0
CC_016;26;6.63358100116;0.63357733581;1;NA;0;0;0;0;0;0
CC_016;27;6.31831272123;0.31830868934;1;NA;0;0;0;0;0;0
CC_016;28;6.77762163379;0.77761686883;1;NA;0;0;0;0;0;0
CC_016;29;6.56782238878;0.567816890748;1;NA;0;0;0;0;0;0
CC_016;30;6.52930577135;0.529301739466;1;NA;3;5;2;5;2;5
CC_016;31;6.34824178567;0.348237753784;1;NA;0;0;0;0;0;0
CC_016;32;6.39148487438;0.391480475953;1;NA;0;0;0;0;0;0
CC_016;33;6.7121786082;0.712174209778;1;NA;0;0;0;0;0;0
CC_016;34;6.49195913426;0.491954369301;1;NA;0;0;0;0;0;0
CC_016;35;6.79674340814;0.796738643182;1;NA;0;0;0;0;0;0
CC_016;36;6.42387265688;0.423868624991;1;NA;0;0;0;0;0;0
CC_016;37;6.49925648337;0.499252084944;1;NA;0;0;0;0;0;0
CC_016;38;6.38153674277;0.381532710883;1;NA;0;0;0;0;0;0
CC_016;39;6.69510393289;0.695098434859;1;NA;0;0;0;0;0;0
CC_016;40;6.55955921944;0.559555187554;1;NA;6;4;1;6;1;6
CC_017;1;6.3732758706;0.373271472194;1;NA;0;0;0;0;0;0
CC_017;2;6.33928388816;0.339280222823;1;NA;0;0;0;0;0;0
CC_017;3;6.34229606332;0.342291664911;1;NA;0;0;0;0;0;0
CC_017;4;6.28939313357;0.289388735169;1;NA;0;0;0;0;0;0
CC_017;5;6.3374119998;0.337407601399;1;NA;0;0;0;0;0;0
CC_017;6;6.27128782767;0.271283795796;1;NA;0;0;0;0;0;0
CC_017;7;6.33910868498;0.339104286577;1;NA;0;0;0;0;0;0
CC_017;8;6.33922817502;0.339223043543;1;NA;0;0;0;0;0;0
CC_017;9;6.32407163391;0.324067602037;1;NA;0;0;0;0;0;0
CC_017;10;6.28571313375;0.285709101878;1;NA;1;7;7;1;5;3
CC_017;11;6.33929268497;0.339288653101;1;NA;0;0;0;0;0;0
CC_017;12;6.3263500083;0.326345609896;1;NA;0;0;0;0;0;0
CC_017;13;6.30682768254;0.306824017204;1;NA;0;0;0;0;0;0
CC_017;14;6.33691864525;0.33691424684;1;NA;0;0;0;0;0;0
CC_017;15;6.33909072482;0.339086692952;1;NA;0;0;0;0;0;0
CC_017;16;6.3730376236;0.373032492126;1;NA;0;0;0;0;0;0
CC_017;17;6.32581266968;0.32580863781;1;NA;0;0;0;0;0;0
CC_017;18;6.40687382915;0.406869430747;1;NA;0;0;0;0;0;0
CC_017;19;6.32233572961;0.322331697737;1;NA;0;0;0;0;0;0
CC_017;20;6.32212313998;0.322118741572;1;NA;1;7;7;1;5;3
CC_017;21;6.33920948179;0.339205449918;1;NA;0;0;0;0;0;0
CC_017;22;6.3258984386;0.32589440673;1;NA;0;0;0;0;0;0
CC_017;23;6.30605612879;0.306052096922;1;NA;0;0;0;0;0;0
CC_017;24;6.35441953684;0.354415504968;1;NA;0;0;0;0;0;0
CC_017;25;6.32211324356;0.322109211693;1;NA;0;0;0;0;0;0
CC_017;26;6.32233169774;0.322327665865;1;NA;0;0;0;0;0;0
CC_017;27;6.34252404737;0.342520015497;1;NA;0;0;0;0;0;0
CC_017;28;6.27276532561;0.272761293732;1;NA;0;0;0;0;0;0
CC_017;29;6.33705792811;0.33705426277;1;NA;0;0;0;0;0;0
CC_017;30;6.37317287459;0.373168842717;1;NA;1;7;7;1;5;3
CC_017;31;6.45561696627;0.455612567859;1;NA;0;0;0;0;0;0
CC_017;32;6.32215686109;0.322153195753;1;NA;0;0;0;0;0;0
CC_017;33;6.30529777026;0.305294104925;1;NA;0;0;0;0;0;0
CC_017;34;6.42481346176;0.424808330288;1;NA;0;0;0;0;0;0
CC_017;35;6.28639781898;0.286393787104;1;NA;0;0;0;0;0;0
CC_017;36;6.35633137739;0.356327712047;1;NA;0;0;0;0;0;0
CC_017;37;6.33911308339;0.339108684982;1;NA;0;0;0;0;0;0
CC_017;38;6.34326591188;0.343261880003;1;NA;0;0;0;0;0;0
CC_017;39;6.35649301881;0.356488620407;1;NA;0;0;0;0;0;0
CC_017;40;6.64305101308;0.643046614675;1;NA;1;7;7;1;5;3
CC_018;1;6.42376482731;0.423760795413;1;NA;0;0;0;0;0;0
CC_018;2;6.36429246379;0.364288431892;1;NA;0;0;0;0;0;0
CC_018;3;6.27143413231;0.271430100409;1;NA;0;0;0;0;0;0
CC_018;4;6.30951726423;0.309512865794;1;NA;0;0;0;0;0;0
CC_018;5;6.3073781578;0.307374125902;1;NA;0;0;0;0;0;0
CC_018;6;6.28905646933;0.28905243743;1;NA;0;0;0;0;0;0
CC_018;7;6.2658583806;0.265853982161;1;NA;0;0;0;0;0;0
CC_018;8;6.3450683627;0.345063964268;1;NA;0;0;0;0;0;0
CC_018;9;6.34203637361;0.342032708242;1;NA;0;0;0;0;0;0
CC_018;10;6.28922177725;0.289217745347;1;NA;2;6;7;1;5;5
CC_018;11;6.29616434319;0.296160311293;1;NA;0;0;0;0;0;0
CC_018;12;6.34236149139;0.342357459492;1;NA;0;0;0;0;0;0
CC_018;13;6.25904263625;0.259038604347;1;NA;0;0;0;0;0;0
CC_018;14;6.27110718184;0.271103516477;1;NA;0;0;0;0;0;0
CC_018;15;6.37695556333;0.376951531425;1;NA;0;0;0;0;0;0
CC_018;16;6.29169296565;0.291689300289;1;NA;0;0;0;0;0;0
CC_018;17;6.30842901766;0.30842498576;1;NA;0;0;0;0;0;0
CC_018;18;6.29372577653;0.293721011552;1;NA;0;0;0;0;0;0
CC_018;19;6.30480580535;0.304802139986;1;NA;0;0;0;0;0;0
CC_018;20;6.27438401725;0.274379985353;1;NA;1;6;6;1;5;6
CC_018;21;6.24549435131;0.245490319408;1;NA;0;0;0;0;0;0
CC_018;22;6.34699817685;0.346994144948;1;NA;0;0;0;0;0;0
CC_018;23;6.29360335337;0.293598954931;1;NA;0;0;0;0;0;0
CC_018;24;6.32290024125;0.322895842817;1;NA;0;0;0;0;0;0
CC_018;25;6.25732761243;0.257323580532;1;NA;0;0;0;0;0;0
CC_018;26;6.36038518577;0.360381153871;1;NA;0;0;0;0;0;0
CC_018;27;6.28982802845;0.289823996552;1;NA;0;0;0;0;0;0
CC_018;28;6.26437830662;0.264374274717;1;NA;0;0;0;0;0;0
CC_018;29;6.39499721799;0.394993552624;1;NA;0;0;0;0;0;0
CC_018;30;6.256789537;0.256785505098;1;NA;1;6;5;1;5;6
CC_018;31;6.66746461641;0.667460951045;1;NA;0;0;0;0;0;0
CC_018;32;6.29170506135;0.291701029454;1;NA;0;0;0;0;0;0
CC_018;33;6.30705560577;0.307050840797;1;NA;0;0;0;0;0;0
CC_018;34;6.59836480781;0.598360775914;1;NA;0;0;0;0;0;0
CC_018;35;6.28965575634;0.289651724444;1;NA;0;0;0;0;0;0
CC_018;36;6.37915478172;0.379150749824;1;NA;0;0;0;0;0;0
CC_018;37;6.3392268721;0.339222840203;1;NA;0;0;0;0;0;0
CC_018;38;6.34732182849;0.347317063516;1;NA;0;0;0;0;0;0
CC_018;39;6.44507855242;0.445074520516;1;NA;0;0;0;0;0;0
CC_018;40;6.29275408853;0.292749690093;1;NA;1;5;4;1;4;6
CC_019;1;6.54369924175;0.543694843326;1;NA;0;0;0;0;0;0
CC_019;2;6.42804969191;0.428044926951;1;NA;0;0;0;0;0;0
CC_019;3;6.33539619339;0.335391794963;1;NA;0;0;0;0;0;0
CC_019;4;6.54793345627;0.547929424382;1;NA;0;0;0;0;0;0
CC_019;5;6.37514436905;0.375139970625;1;NA;0;0;0;0;0;0
CC_019;6;6.3246878678;0.324683835908;1;NA;0;0;0;0;0;0
CC_019;7;6.44602567726;0.446021278834;1;NA;0;0;0;0;0;0
CC_019;8;6.47848273491;0.478478336488;1;NA;0;0;0;0;0;0
CC_019;9;6.56591457311;0.565910541222;1;NA;0;0;0;0;0;0
CC_019;10;6.44492570515;0.444921306727;1;NA;1;4;3;2;2;2
CC_019;11;6.42384773249;0.423844067133;1;NA;0;0;0;0;0;0
CC_019;12;6.46258500409;0.462580972205;1;NA;0;0;0;0;0;0
CC_019;13;6.41073163723;0.410727605342;1;NA;0;0;0;0;0;0
CC_019;14;6.42853058608;0.428526554192;1;NA;0;0;0;0;0;0
CC_019;15;6.47825914844;0.478255116556;1;NA;0;0;0;0;0;0
CC_019;16;6.39271276726;0.392708368841;1;NA;0;0;0;0;0;0
CC_019;17;6.34293325651;0.34292922462;1;NA;0;0;0;0;0;0
CC_019;18;6.37755287179;0.377548839898;1;NA;0;0;0;0;0;0
CC_019;19;6.41034714181;0.410343109927;1;NA;0;0;0;0;0;0
CC_019;20;6.41198005609;0.411975657665;1;NA;1;2;2;2;2;5
CC_019;21;6.35597861047;0.355974212051;1;NA;0;0;0;0;0;0
CC_019;22;6.34774769624;0.347743664348;1;NA;0;0;0;0;0;0
CC_019;23;6.42556568292;0.425562017571;1;NA;0;0;0;0;0;0
CC_019;24;6.46197545607;0.461971424184;1;NA;0;0;0;0;0;0
CC_019;25;6.40939488339;0.409390484967;1;NA;0;0;0;0;0;0
CC_019;26;6.47813855837;0.478134526479;1;NA;0;0;0;0;0;0
CC_019;27;6.48006616693;0.48006176851;1;NA;0;0;0;0;0;0
CC_019;28;6.46602200457;0.466018339222;1;NA;0;0;0;0;0;0
CC_019;29;6.51467955111;0.51467588576;1;NA;0;0;0;0;0;0
CC_019;30;6.4789606968;0.478955565305;1;NA;2;2;2;2;2;5
CC_019;31;6.4622965409;0.462292509011;1;NA;0;0;0;0;0;0
CC_019;32;6.37611788651;0.376113488092;1;NA;0;0;0;0;0;0
CC_019;33;6.39289456872;0.392890536831;1;NA;0;0;0;0;0;0
CC_019;34;6.48083405816;0.480828926664;1;NA;0;0;0;0;0;0
CC_019;35;6.48046972218;0.48046569029;1;NA;0;0;0;0;0;0
CC_019;36;6.49443984443;0.494435812541;1;NA;0;0;0;0;0;0
CC_019;37;6.44386641845;0.443862386563;1;NA;0;0;0;0;0;0
CC_019;38;6.37575171786;0.375747319437;1;NA;0;0;0;0;0;0
CC_019;39;6.37885590439;0.3788518725;1;NA;0;0;0;0;0;0
CC_019;40;6.51614862416;0.516144592269;1;NA;2;2;2;2;2;5
CC_020;1;6.50349766206;0.503493996704;1;NA;0;0;0;0;0;0
CC_020;2;6.30702710271;0.307023437359;1;NA;0;0;0;0;0;0
CC_020;3;6.37830426893;0.378300237038;1;NA;0;0;0;0;0;0
CC_020;4;6.3402219957;0.340217963817;1;NA;0;0;0;0;0;0
CC_020;5;6.35800774929;0.358003350864;1;NA;0;0;0;0;0;0
CC_020;6;6.36001233024;0.360008664892;1;NA;0;0;0;0;0;0
CC_020;7;6.34775172812;0.34774806277;1;NA;0;0;0;0;0;0
CC_020;8;6.3746022635;0.37459859815;1;NA;0;0;0;0;0;0
CC_020;9;6.35805246658;0.358048434693;1;NA;0;0;0;0;0;0
CC_020;10;6.33844026814;0.33843660279;1;NA;1;6;7;1;5;1
CC_020;11;6.3071696849;0.307165653014;1;NA;0;0;0;0;0;0
CC_020;12;6.34581972113;0.345816055781;1;NA;0;0;0;0;0;0
CC_020;13;6.32308647555;0.323082810196;1;NA;0;0;0;0;0;0
CC_020;14;6.39740771652;0.397403684632;1;NA;0;0;0;0;0;0
CC_020;15;6.35498713278;0.35498346743;1;NA;0;0;0;0;0;0
CC_020;16;6.35880093144;0.358796899552;1;NA;0;0;0;0;0;0
CC_020;17;6.32570683563;0.325703170273;1;NA;0;0;0;0;0;0
CC_020;18;6.32245017046;0.322446505105;1;NA;0;0;0;0;0;0
CC_020;19;6.32425572281;0.324251690919;1;NA;0;0;0;0;0;0
CC_020;20;6.36172075077;0.361717085415;1;NA;1;6;6;1;6;1
CC_020;21;6.44099204948;0.440988384133;1;NA;0;0;0;0;0;0
CC_020;22;6.36049542363;0.360491391738;1;NA;0;0;0;0;0;0
CC_020;23;6.35647563219;0.356471600303;1;NA;0;0;0;0;0;0
CC_020;24;6.41338608508;0.413382419726;1;NA;0;0;0;0;0;0
CC_020;25;6.37306244917;0.373058417279;1;NA;0;0;0;0;0;0
CC_020;26;6.3414051713;0.341401139411;1;NA;0;0;0;0;0;0
CC_020;27;6.35906593638;0.35906227103;1;NA;0;0;0;0;0;0
CC_020;28;6.39324790864;0.393243876755;1;NA;0;0;0;0;0;0
CC_020;29;6.32636183401;0.326358168658;1;NA;0;0;0;0;0;0
CC_020;30;6.32029531007;0.320290911651;1;NA;1;6;6;1;6;1
CC_020;31;6.39039259951;0.390388934156;1;NA;0;0;0;0;0;0
CC_020;32;6.34778288361;0.347779218261;1;NA;0;0;0;0;0;0
CC_020;33;6.32759852374;0.327594491856;1;NA;0;0;0;0;0;0
CC_020;34;6.34464387624;0.344639844355;1;NA;0;0;0;0;0;0
CC_020;35;6.36030775761;0.360304092255;1;NA;0;0;0;0;0;0
CC_020;36;6.39341358255;0.393409184126;1;NA;0;0;0;0;0;0
CC_020;37;6.37569307223;0.375689040341;1;NA;0;0;0;0;0;0
CC_020;38;6.32877656785;0.328772535958;1;NA;0;0;0;0;0;0
CC_020;39;6.37742348486;0.377419452975;1;NA;0;0;0;0;0;0
CC_020;40;6.46095575517;0.460950990213;1;NA;1;6;5;1;5;1
CC_021;1;6.33031072985;0.330306697916;1;NA;0;0;0;0;0;0
CC_021;2;6.30627089731;0.30626686538;1;NA;0;0;0;0;0;0
CC_021;3;6.42758030688;0.427576274951;1;NA;0;0;0;0;0;0
CC_021;4;6.39086921812;0.390864819652;1;NA;0;0;0;0;0;0
CC_021;5;6.34621632697;0.34621229504;1;NA;0;0;0;0;0;0
CC_021;6;6.28894056275;0.288936897364;1;NA;0;0;0;0;0;0
CC_021;7;6.35931826662;0.359313868153;1;NA;0;0;0;0;0;0
CC_021;8;6.35626206372;0.356257665248;1;NA;0;0;0;0;0;0
CC_021;9;6.35812408228;0.358119317269;1;NA;0;0;0;0;0;0
CC_021;10;6.30905916014;0.309055128212;1;NA;1;6;6;1;4;5
CC_021;11;6.41012754827;0.410123149803;1;NA;0;0;0;0;0;0
CC_021;12;6.38231822777;0.382314195839;1;NA;0;0;0;0;0;0
CC_021;13;6.32596174358;0.325957711653;1;NA;0;0;0;0;0;0
CC_021;14;6.37635207106;0.376348039126;1;NA;0;0;0;0;0;0
CC_021;15;6.28901533673;0.289011671337;1;NA;0;0;0;0;0;0
CC_021;16;6.3479232995;0.347919267567;1;NA;0;0;0;0;0;0
CC_021;17;6.36043437814;0.360430346211;1;NA;0;0;0;0;0;0
CC_021;18;6.3420641722;0.342060140267;1;NA;0;0;0;0;0;0
CC_021;19;6.35984901522;0.35984498329;1;NA;0;0;0;0;0;0
CC_021;20;6.41298288776;0.412978855826;1;NA;1;6;4;1;4;6
CC_021;21;6.34293616868;0.342932136754;1;NA;0;0;0;0;0;0
CC_021;22;6.30662973908;0.306625707145;1;NA;0;0;0;0;0;0
CC_021;23;6.35972915694;0.359725491547;1;NA;0;0;0;0;0;0
CC_021;24;6.39561003467;0.395605636199;1;NA;0;0;0;0;0;0
CC_021;25;6.34380303362;0.343798635155;1;NA;0;0;0;0;0;0
CC_021;26;6.30962509649;0.309621064561;1;NA;0;0;0;0;0;0
CC_021;27;6.35994321576;0.359939183835;1;NA;0;0;0;0;0;0
CC_021;28;6.39443124496;0.394427213035;1;NA;0;0;0;0;0;0
CC_021;29;6.37817193762;0.378167905691;1;NA;0;0;0;0;0;0
CC_021;30;6.37614021146;0.376136179534;1;NA;1;6;3;1;2;6
CC_021;31;6.40700866718;0.407004635254;1;NA;0;0;0;0;0;0
CC_021;32;6.42995364747;0.429949248998;1;NA;0;0;0;0;0;0
CC_021;33;6.34339507562;0.343391043691;1;NA;0;0;0;0;0;0
CC_021;34;6.39378870195;0.393784670016;1;NA;0;0;0;0;0;0
CC_021;35;6.30513132729;0.30512692882;1;NA;0;0;0;0;0;0
CC_021;36;6.32432771233;0.324323680404;1;NA;0;0;0;0;0;0
CC_021;37;6.2767857601;0.276781361634;1;NA;0;0;0;0;0;0
CC_021;38;6.32217942675;0.322175028279;1;NA;0;0;0;0;0;0
CC_021;39;6.32544345731;0.325439425384;1;NA;0;0;0;0;0;0
CC_021;40;6.31160037563;0.311596343699;1;NA;1;5;2;1;2;5
CC_022;1;6.47440017711;0.474396145182;1;NA;0;0;0;0;0;0
CC_022;2;6.32896846371;0.328964798319;1;NA;0;0;0;0;0;0
CC_022;3;6.30617852946;0.30617449753;1;NA;0;0;0;0;0;0
CC_022;4;6.32701554346;0.327011144988;1;NA;0;0;0;0;0;0
CC_022;5;6.34310880859;0.343105143203;1;NA;0;0;0;0;0;0
CC_022;6;6.30967201349;0.309667615025;1;NA;0;0;0;0;0;0
CC_022;7;6.34145425116;0.341449486149;1;NA;0;0;0;0;0;0
CC_022;8;6.35831028413;0.358306252204;1;NA;0;0;0;0;0;0
CC_022;9;6.29091767459;0.290914009197;1;NA;0;0;0;0;0;0
CC_022;10;6.32988591104;0.329881879114;1;NA;1;7;7;1;2;1
CC_022;11;6.48004267981;0.480038647881;1;NA;0;0;0;0;0;0
CC_022;12;6.2908718572;0.290867825272;1;NA;0;0;0;0;0;0
CC_022;13;6.43155249096;0.431548459033;1;NA;0;0;0;0;0;0
CC_022;14;6.3052937041;0.305289305636;1;NA;0;0;0;0;0;0
CC_022;15;6.34791853449;0.347914869098;1;NA;0;0;0;0;0;0
CC_022;16;6.30751493097;0.30751089904;1;NA;0;0;0;0;0;0
CC_022;17;6.29200336336;0.291999331434;1;NA;0;0;0;0;0;0
CC_022;18;6.3060916597;0.306087627766;1;NA;0;0;0;0;0;0
CC_022;19;6.4310305393;0.431026873913;1;NA;0;0;0;0;0;0
CC_022;20;6.37439841772;0.374394019255;1;NA;1;7;7;1;2;1
CC_022;21;6.47924692345;0.479242891524;1;NA;0;0;0;0;0;0
CC_022;22;6.28974694875;0.289743283354;1;NA;0;0;0;0;0;0
CC_022;23;6.2934094073;0.293405375369;1;NA;0;0;0;0;0;0
CC_022;24;6.27017009613;0.27016569766;1;NA;0;0;0;0;0;0
CC_022;25;6.35650471259;0.356501047202;1;NA;0;0;0;0;0;0
CC_022;26;6.44642261517;0.446418949778;1;NA;0;0;0;0;0;0
CC_022;27;6.35738807179;0.357383673323;1;NA;0;0;0;0;0;0
CC_022;28;6.32680881541;0.326804416942;1;NA;0;0;0;0;0;0
CC_022;29;6.4913313506;0.491327318671;1;NA;0;0;0;0;0;0
CC_022;30;6.36221429195;0.362210260016;1;NA;1;7;6;1;4;1
CC_022;31;6.30709670987;0.307092311403;1;NA;0;0;0;0;0;0
CC_022;32;6.30695485925;0.306951193855;1;NA;0;0;0;0;0;0
CC_022;33;6.28808359437;0.28807956244;1;NA;0;0;0;0;0;0
CC_022;34;6.28919750665;0.289193474724;1;NA;0;0;0;0;0;0
CC_022;35;6.32438965744;0.32438562551;1;NA;0;0;0;0;0;0
CC_022;36;6.4440888608;0.444084828874;1;NA;0;0;0;0;0;0
CC_022;37;6.3404990503;0.340495384906;1;NA;0;0;0;0;0;0
CC_022;38;6.34510608008;0.345102414686;1;NA;0;0;0;0;0;0
CC_022;39;6.28915425504;0.289150223112;1;NA;0;0;0;0;0;0
CC_022;40;6.32615234391;0.326148311978;1;NA;1;7;6;1;4;1
CC_023;1;6.43653101875;0.436526623243;1;NA;0;0;0;0;0;0
CC_023;2;6.32565461979;0.325650956866;1;NA;0;0;0;0;0;0
CC_023;3;6.3447102589;0.344705863392;1;NA;0;0;0;0;0;0
CC_023;4;6.3288153585;0.328811695575;1;NA;0;0;0;0;0;0
CC_023;5;6.36243845369;0.362434058177;1;NA;0;0;0;0;0;0
CC_023;6;6.3074033592;0.307399329978;1;NA;0;0;0;0;0;0
CC_023;7;6.34229419302;0.342290163799;1;NA;0;0;0;0;0;0
CC_023;8;6.34654465216;0.346540622947;1;NA;0;0;0;0;0;0
CC_023;9;6.32592640889;0.325922745964;1;NA;0;0;0;0;0;0
CC_023;10;6.34667395345;0.346669924229;1;NA;2;6;5;2;4;3
CC_023;11;6.30339135652;0.303387327303;1;NA;0;0;0;0;0;0
CC_023;12;6.32374074104;0.323736711821;1;NA;0;0;0;0;0;0
CC_023;13;6.32565755013;0.325653887206;1;NA;0;0;0;0;0;0
CC_023;14;6.32467295567;0.324668926448;1;NA;0;0;0;0;0;0
CC_023;15;6.29314102484;0.293136995624;1;NA;0;0;0;0;0;0
CC_023;16;6.34510732006;0.345103290846;1;NA;0;0;0;0;0;0
CC_023;17;6.33990999459;0.339905965368;1;NA;0;0;0;0;0;0
CC_023;18;6.30722827134;0.307224608415;1;NA;0;0;0;0;0;0
CC_023;19;6.34721570018;0.347211304668;1;NA;0;0;0;0;0;0
CC_023;20;6.27398135864;0.273977695711;1;NA;2;6;5;2;4;2
CC_023;21;6.31237541473;0.312371019224;1;NA;0;0;0;0;0;0
CC_023;22;6.29165607471;0.29165241178;1;NA;0;0;0;0;0;0
CC_023;23;6.27797724444;0.277973215221;1;NA;0;0;0;0;0;0
CC_023;24;6.30980916889;0.309805139671;1;NA;0;0;0;0;0;0
CC_023;25;6.3896488646;0.389644835384;1;NA;0;0;0;0;0;0
CC_023;26;6.3616721696;0.361668140384;1;NA;0;0;0;0;0;0
CC_023;27;6.36096302716;0.360958997941;1;NA;0;0;0;0;0;0
CC_023;28;6.3427051733;0.342701510371;1;NA;0;0;0;0;0;0
CC_023;29;6.32436636877;0.324362339555;1;NA;0;0;0;0;0;0
CC_023;30;6.31028132003;0.310277290812;1;NA;3;5;3;3;3;3
CC_023;31;6.31352337569;0.313519346476;1;NA;0;0;0;0;0;0
CC_023;32;6.31174612407;0.311742461149;1;NA;0;0;0;0;0;0
CC_023;33;6.29397214272;0.293968113498;1;NA;0;0;0;0;0;0
CC_023;34;6.32454878248;0.324544386969;1;NA;0;0;0;0;0;0
CC_023;35;6.34289234881;0.342888319588;1;NA;0;0;0;0;0;0
CC_023;36;6.32957321786;0.329568456054;1;NA;0;0;0;0;0;0
CC_023;37;6.31224318311;0.312237688723;1;NA;0;0;0;0;0;0
CC_023;38;6.30616565655;0.306161627335;1;NA;0;0;0;0;0;0
CC_023;39;6.32778864039;0.32778461117;1;NA;0;0;0;0;0;0
CC_023;40;6.32359495659;0.323591293665;1;NA;3;5;3;3;3;3
CC_024;1;6.52641444564;0.526409680666;1;NA;0;0;0;0;0;0
CC_024;2;6.371242727;0.371238695101;1;NA;0;0;0;0;0;0
CC_024;3;6.5765273022;0.57652290376;1;NA;0;0;0;0;0;0
CC_024;4;6.40758627717;0.407582611807;1;NA;0;0;0;0;0;0
CC_024;5;6.55812094382;0.558116911916;1;NA;0;0;0;0;0;0
CC_024;6;6.44509871192;0.445094680018;1;NA;0;0;0;0;0;0
CC_024;7;6.39018202931;0.390178363943;1;NA;0;0;0;0;0;0
CC_024;8;6.38973045646;0.389726424562;1;NA;0;0;0;0;0;0
CC_024;9;6.35606225547;0.356058223574;1;NA;0;0;0;0;0;0
CC_024;10;6.41010511531;0.410101449945;1;NA;1;7;6;1;4;1
CC_024;11;6.42377838916;0.42377435726;1;NA;0;0;0;0;0;0
CC_024;12;6.3914003963;0.391395997863;1;NA;0;0;0;0;0;0
CC_024;13;6.43849299292;0.438488961024;1;NA;0;0;0;0;0;0
CC_024;14;6.45794874502;0.457945079653;1;NA;0;0;0;0;0;0
CC_024;15;6.62748172633;0.627478060964;1;NA;0;0;0;0;0;0
CC_024;16;6.47484204114;0.474838009239;1;NA;0;0;0;0;0;0
CC_024;17;6.39412119599;0.394117164094;1;NA;0;0;0;0;0;0
CC_024;18;6.38997896814;0.389974936241;1;NA;0;0;0;0;0;0
CC_024;19;6.59284770193;0.592844036563;1;NA;0;0;0;0;0;0
CC_024;20;6.39366082628;0.393656427838;1;NA;1;7;6;1;4;1
CC_024;21;6.35616451913;0.356160853766;1;NA;0;0;0;0;0;0
CC_024;22;6.45804697677;0.458042944871;1;NA;0;0;0;0;0;0
CC_024;23;6.55950461873;0.559500953362;1;NA;0;0;0;0;0;0
CC_024;24;6.55974873197;0.559744333531;1;NA;0;0;0;0;0;0
CC_024;25;6.39154664432;0.391542978959;1;NA;0;0;0;0;0;0
CC_024;26;6.35393231246;0.353928647092;1;NA;0;0;0;0;0;0
CC_024;27;6.47485523645;0.474851204549;1;NA;0;0;0;0;0;0
CC_024;28;6.42706072262;0.427056690718;1;NA;0;0;0;0;0;0
CC_024;29;6.60612584954;0.60612181764;1;NA;0;0;0;0;0;0
CC_024;30;6.5963034071;0.596299375203;1;NA;1;7;5;1;3;1
CC_024;31;6.40705846476;0.407054066318;1;NA;0;0;0;0;0;0
CC_024;32;6.33931813967;0.339314474302;1;NA;0;0;0;0;0;0
CC_024;33;6.42530061483;0.425296582928;1;NA;0;0;0;0;0;0
CC_024;34;6.50643747879;0.506433446886;1;NA;0;0;0;0;0;0
CC_024;35;6.35622792993;0.356224264563;1;NA;0;0;0;0;0;0
CC_024;36;6.39315573912;0.393152073752;1;NA;0;0;0;0;0;0
CC_024;37;6.57253205544;0.572527657004;1;NA;0;0;0;0;0;0
CC_024;38;6.54259702768;0.542592629246;1;NA;0;0;0;0;0;0
CC_024;39;6.62745606878;0.627452036879;1;NA;0;0;0;0;0;0
CC_024;40;6.4409880062;0.440983607759;1;NA;1;7;4;1;3;1
CC_025;1;6.35075385459;0.350749826614;1;NA;0;0;0;0;0;0
CC_025;2;6.3230186554;0.323014261243;1;NA;0;0;0;0;0;0
CC_025;3;6.32271289517;0.322708867194;1;NA;0;0;0;0;0;0
CC_025;4;6.30486308899;0.304858694832;1;NA;0;0;0;0;0;0
CC_025;5;6.32102370722;0.321019679241;1;NA;0;0;0;0;0;0
CC_025;6;6.92067444482;0.920670416837;1;NA;0;0;0;0;0;0
CC_025;7;6.29293587677;0.292931848791;1;NA;0;0;0;0;0;0
CC_025;8;6.40885745275;0.408853424771;1;NA;0;0;0;0;0;0
CC_025;9;6.31213249268;0.312128098522;1;NA;0;0;0;0;0;0
CC_025;10;6.28718392265;0.287179894672;1;NA;2;2;4;1;4;2
CC_025;11;6.3266797222;0.326675328042;1;NA;0;0;0;0;0;0
CC_025;12;6.35985379168;0.359849763704;1;NA;0;0;0;0;0;0
CC_025;13;6.35921883571;0.35921444155;1;NA;0;0;0;0;0;0
CC_025;14;6.32387698113;0.323872953146;1;NA;0;0;0;0;0;0
CC_025;15;6.32602792195;0.326023893971;1;NA;0;0;0;0;0;0
CC_025;16;6.33702430483;0.337020276846;1;NA;0;0;0;0;0;0
CC_025;17;6.44483096769;0.44482730589;1;NA;0;0;0;0;0;0
CC_025;18;6.3599409425;0.359936914524;1;NA;0;0;0;0;0;0
CC_025;19;6.29205484789;0.292050453734;1;NA;0;0;0;0;0;0
CC_025;20;6.32781304904;0.327809021062;1;NA;2;4;3;2;3;2
CC_025;21;6.30888191357;0.308877519409;1;NA;0;0;0;0;0;0
CC_025;22;6.37890283709;0.378898442929;1;NA;0;0;0;0;0;0
CC_025;23;6.32288353501;0.322879507034;1;NA;0;0;0;0;0;0
CC_025;24;6.27230163851;0.27229724435;1;NA;0;0;0;0;0;0
CC_025;25;6.2732152574;0.27321049706;1;NA;0;0;0;0;0;0
CC_025;26;6.34284363605;0.34283960807;1;NA;0;0;0;0;0;0
CC_025;27;6.30791300151;0.307909339711;1;NA;0;0;0;0;0;0
CC_025;28;6.29012105176;0.290117023778;1;NA;0;0;0;0;0;0
CC_025;29;6.32317428187;0.323170253887;1;NA;0;0;0;0;0;0
CC_025;30;6.30565147435;0.305647446372;1;NA;4;4;2;4;2;1
CC_025;31;6.34752561245;0.347521950655;1;NA;0;0;0;0;0;0
CC_025;32;6.30906097555;0.309056581388;1;NA;0;0;0;0;0;0
CC_025;33;6.29088087508;0.290876847103;1;NA;0;0;0;0;0;0
CC_025;34;6.35686027087;0.356856609072;1;NA;0;0;0;0;0;0
CC_025;35;6.34018004334;0.340176015362;1;NA;0;0;0;0;0;0
CC_025;36;6.36762559422;0.36762083388;1;NA;0;0;0;0;0;0
CC_025;37;6.32323177211;0.323228110314;1;NA;0;0;0;0;0;0
CC_025;38;6.37820160255;0.378197574571;1;NA;0;0;0;0;0;0
CC_025;39;6.50165586558;0.501651837601;1;NA;0;0;0;0;0;0
CC_025;40;6.41164481427;0.41164078629;1;NA;4;4;2;2;2;1
CC_026;1;6.59215192388;0.592147892009;1;NA;0;0;0;0;0;0
CC_026;2;6.380790181;0.380785782592;1;NA;0;0;0;0;0;0
CC_026;3;6.33436170513;0.334357673258;1;NA;0;0;0;0;0;0
CC_026;4;6.33478578479;0.334778820648;1;NA;0;0;0;0;0;0
CC_026;5;6.4428421621;0.442837397155;1;NA;0;0;0;0;0;0
CC_026;6;6.38442546369;0.384421798354;1;NA;0;0;0;0;0;0
CC_026;7;6.42515103944;0.425147007563;1;NA;0;0;0;0;0;0
CC_026;8;6.47082592171;0.470819324104;1;NA;0;0;0;0;0;0
CC_026;9;6.35880768006;0.358804014718;1;NA;0;0;0;0;0;0
CC_026;10;6.72408908092;0.724085049048;1;NA;1;7;5;1;3;3
CC_026;11;6.39468621221;0.394682180334;1;NA;0;0;0;0;0;0
CC_026;12;6.85776214226;0.857757743852;1;NA;0;0;0;0;0;0
CC_026;13;6.33384012747;0.33383572906;1;NA;0;0;0;0;0;0
CC_026;14;6.45905248801;0.459048456141;1;NA;0;0;0;0;0;0
CC_026;15;6.36791091468;0.367906882809;1;NA;0;0;0;0;0;0
CC_026;16;6.35107711469;0.351073082817;1;NA;0;0;0;0;0;0
CC_026;17;6.6053691344;0.605365102532;1;NA;0;0;0;0;0;0
CC_026;18;6.39260613262;0.392602467286;1;NA;0;0;0;0;0;0
CC_026;19;6.35505877187;0.355054373464;1;NA;0;0;0;0;0;0
CC_026;20;6.37275942441;0.372755392538;1;NA;1;7;5;1;2;3
CC_026;21;6.45703288652;0.457028854644;1;NA;0;0;0;0;0;0
CC_026;22;6.39604971812;0.396045686245;1;NA;0;0;0;0;0;0
CC_026;23;6.38224935224;0.382244953837;1;NA;0;0;0;0;0;0
CC_026;24;6.5420782689;0.542074237032;1;NA;0;0;0;0;0;0
CC_026;25;6.52892007033;0.528916038458;1;NA;0;0;0;0;0;0
CC_026;26;6.39715225193;0.397148220056;1;NA;0;0;0;0;0;0
CC_026;27;6.35706811042;0.357063712013;1;NA;0;0;0;0;0;0
CC_026;28;6.4272666728;0.427262274394;1;NA;0;0;0;0;0;0
CC_026;29;6.40926692864;0.409262530234;1;NA;0;0;0;0;0;0
CC_026;30;6.3502282223;0.350223823893;1;NA;1;7;3;1;1;3
CC_026;31;6.44197311034;0.441968711938;1;NA;0;0;0;0;0;0
CC_026;32;6.36920587876;0.369202213425;1;NA;0;0;0;0;0;0
CC_026;33;6.34935220641;0.349348541067;1;NA;0;0;0;0;0;0
CC_026;34;6.44279231349;0.44278828162;1;NA;0;0;0;0;0;0
CC_026;35;6.38983073834;0.389827072996;1;NA;0;0;0;0;0;0
CC_026;36;6.60177820231;0.601774170433;1;NA;0;0;0;0;0;0
CC_026;37;6.40843196454;0.408425366928;1;NA;0;0;0;0;0;0
CC_026;38;6.45120463182;0.451200599943;1;NA;0;0;0;0;0;0
CC_026;39;6.56685778963;0.566854124294;1;NA;0;0;0;0;0;0
CC_026;40;6.538197042;0.538193010126;1;NA;1;7;3;1;1;1
CC_027;1;15.0150229159;NA;0;NA;0;0;0;0;0;0
CC_027;2;15.000601855;NA;0;NA;0;0;0;0;0;0
CC_027;3;15.0165491791;NA;0;NA;0;0;0;0;0;0
CC_027;4;15.0088731457;NA;0;NA;0;0;0;0;0;0
CC_027;5;15.0074381504;NA;0;NA;0;0;0;0;0;0
CC_027;6;15.0039707034;NA;0;NA;0;0;0;0;0;0
CC_027;7;15.0088947714;NA;0;NA;0;0;0;0;0;0
CC_027;8;15.0091190925;NA;0;NA;0;0;0;0;0;0
CC_027;9;15.0096322454;NA;0;NA;0;0;0;0;0;0
CC_027;10;15.0125421885;NA;0;NA;2;3;2;3;1;1
CC_027;11;15.0075785344;NA;0;NA;0;0;0;0;0;0
CC_027;12;15.0169281791;NA;0;NA;0;0;0;0;0;0
CC_027;13;15.0005468743;NA;0;NA;0;0;0;0;0;0
CC_027;14;15.0118017823;NA;0;NA;0;0;0;0;0;0
CC_027;15;15.0066277355;NA;0;NA;0;0;0;0;0;0
CC_027;16;15.0075561756;NA;0;NA;0;0;0;0;0;0
CC_027;17;15.0036499828;NA;0;NA;0;0;0;0;0;0
CC_027;18;15.0114843606;NA;0;NA;0;0;0;0;0;0
CC_027;19;15.0096656003;NA;0;NA;0;0;0;0;0;0
CC_027;20;15.0097480713;NA;0;NA;2;3;1;4;1;1
CC_027;21;15.0133526034;NA;0;NA;0;0;0;0;0;0
CC_027;22;15.01335297;NA;0;NA;0;0;0;0;0;0
CC_027;23;15.0030213706;NA;0;NA;0;0;0;0;0;0
CC_027;24;15.0013998076;NA;0;NA;0;0;0;0;0;0
CC_027;25;15.0023901926;NA;0;NA;0;0;0;0;0;0
CC_027;26;15.0025675969;NA;0;NA;0;0;0;0;0;0
CC_027;27;15.0074975295;NA;0;NA;0;0;0;0;0;0
CC_027;28;15.0057949617;NA;0;NA;0;0;0;0;0;0
CC_027;29;15.0054958669;NA;0;NA;0;0;0;0;0;0
CC_027;30;15.0007704623;NA;0;NA;2;3;1;4;1;1
CC_027;31;15.0129490454;NA;0;NA;0;0;0;0;0;0
CC_027;32;15.0052180313;NA;0;NA;0;0;0;0;0;0
CC_027;33;15.0153491345;NA;0;NA;0;0;0;0;0;0
CC_027;34;15.0040051579;NA;0;NA;0;0;0;0;0;0
CC_027;35;15.0073289222;NA;0;NA;0;0;0;0;0;0
CC_027;36;15.0070162655;NA;0;NA;0;0;0;0;0;0
CC_027;37;15.0157981433;NA;0;NA;0;0;0;0;0;0
CC_027;38;15.0035513842;NA;0;NA;0;0;0;0;0;0
CC_027;39;15.0168644016;NA;0;NA;0;0;0;0;0;0
CC_027;40;15.0109756062;NA;0;NA;3;3;1;4;1;1
EC_001;1;6.44441622114;0.440788976931;1;0;0;0;0;0;0;0
EC_001;2;6.37324694803;0.373174740364;1;0;0;0;0;0;0;0
EC_001;3;6.52529504348;0.525147329306;1;0;0;0;0;0;0;0
EC_001;4;6.42413356293;0.424015904748;1;0;0;0;0;0;0;0
EC_001;5;6.42379524984;0.423671360531;1;0;0;0;0;0;0;0
EC_001;6;6.40732383711;0.407203246633;1;0;0;0;0;0;0;0
EC_001;7;6.3394816149;0.339325470395;1;0;0;0;0;0;0;0
EC_001;8;6.6100023385;0.609880281881;1;0;0;0;0;0;0;0
EC_001;9;6.42352218022;0.423401223205;1;0;0;0;0;0;0;0
EC_001;10;6.37313222214;0.373011631666;1;6;5;4;3;3;5;6
EC_001;11;6.37303618961;0.372893973482;1;0;0;0;0;0;0;0
EC_001;12;6.33936835515;0.339245198923;1;0;0;0;0;0;0;0
EC_001;13;6.37332795258;0.373208095176;1;0;0;0;0;0;0;0
EC_001;14;6.40731577331;0.407164393774;1;0;0;0;0;0;0;0
EC_001;15;6.57621024821;0.576092590027;1;0;0;0;0;0;0;0
EC_001;16;6.47453011866;0.474410627796;1;0;0;0;0;0;0;0
EC_001;17;6.43244367618;0.425835757972;1;0;0;0;0;0;0;0
EC_001;18;6.57636712579;0.576246901851;1;0;0;0;0;0;0;0
EC_001;19;6.48392041468;0.47882959063;1;0;0;0;0;0;0;0
EC_001;20;6.37324218306;0.373121959123;1;7;3;3;3;3;5;7
EC_001;21;6.41398343695;0.406506827474;1;0;0;0;0;0;0;0
EC_001;22;6.44066765338;0.440549628662;1;0;0;0;0;0;0;0
EC_001;23;6.49350680768;0.493387316814;1;0;0;0;0;0;0;0
EC_001;24;6.47350858172;0.473464230812;1;0;0;0;0;0;0;0
EC_001;25;6.44090150361;0.440756355191;1;0;0;0;0;0;0;0
EC_001;26;6.66121370465;0.661095679929;1;0;0;0;0;0;0;0
EC_001;27;6.39006766995;0.389944147183;1;0;0;0;0;0;0;0
EC_001;28;6.67858203195;0.678461441471;1;0;0;0;0;0;0;0
EC_001;29;6.47503264007;0.474914981883;1;0;0;0;0;0;0;0
EC_001;30;6.42406831945;0.423918406065;1;7;3;3;3;3;5;7
EC_001;31;6.44040851215;0.440286455527;1;0;0;0;0;0;0;0
EC_001;32;6.42415445551;0.424037530395;1;0;0;0;0;0;0;0
EC_001;33;6.61987096453;0.612698946795;1;0;0;0;0;0;0;0
EC_001;34;6.49136330282;0.491306489674;1;0;0;0;0;0;0;0
EC_001;35;6.49161767908;0.491556100962;1;0;0;0;0;0;0;0
EC_001;36;6.49185446159;0.491733138043;1;0;0;0;0;0;0;0
EC_001;37;6.57661673708;0.576497246212;1;0;0;0;0;0;0;0
EC_001;38;6.41013663744;0.410015680428;1;0;0;0;0;0;0;0
EC_001;39;6.42418121266;0.424056223752;1;0;0;0;0;0;0;0
EC_001;40;6.39029089062;0.390167734387;1;7;2;3;2;2;4;7
EC_002;1;6.52588919898;0.525763110457;1;0;0;0;0;0;0;0
EC_002;2;6.42692583722;0.426801581385;1;0;0;0;0;0;0;0
EC_002;3;6.44629911863;0.440927161154;1;0;0;0;0;0;0;0
EC_002;4;6.47504180348;0.474920113392;1;0;0;0;0;0;0;0
EC_002;5;6.35556083368;0.355435844767;1;0;0;0;0;0;0;0
EC_002;6;6.38968024098;0.389559283964;1;0;0;0;0;0;0;0
EC_002;7;6.77926078405;0.779133229384;1;0;0;0;0;0;0;0
EC_002;8;6.30762300412;0.307480787995;1;0;0;0;0;0;0;0
EC_002;9;6.42413759483;0.424015904748;1;0;0;0;0;0;0;0
EC_002;10;6.34552213477;0.339951881101;1;5;5;2;4;4;5;5
EC_002;11;6.37281810045;0.372697143435;1;0;0;0;0;0;0;0
EC_002;12;6.40733813203;0.407216075407;1;0;0;0;0;0;0;0
EC_002;13;6.52924227396;0.529122050023;1;0;0;0;0;0;0;0
EC_002;14;6.47482224817;0.474700924625;1;0;0;0;0;0;0;0
EC_002;15;6.38995367713;0.389831253972;1;0;0;0;0;0;0;0
EC_002;16;6.40705883129;0.406936408134;1;0;0;0;0;0;0;0
EC_002;17;6.44427473809;0.440699908586;1;0;0;0;0;0;0;0
EC_002;18;6.40678209631;0.406662238907;1;0;0;0;0;0;0;0
EC_002;19;6.52975249263;0.529607344217;1;0;0;0;0;0;0;0
EC_002;20;6.45789596377;0.45777830559;1;6;5;2;4;3;6;5
EC_002;21;6.42814786958;0.42806136699;1;0;0;0;0;0;0;0
EC_002;22;6.35671835563;0.356625255385;1;0;0;0;0;0;0;0
EC_002;23;6.37339502874;0.373276270947;1;0;0;0;0;0;0;0
EC_002;24;6.3903480703;0.390226746748;1;0;0;0;0;0;0;0
EC_002;25;6.42665203453;0.426535842495;1;0;0;0;0;0;0;0
EC_002;26;6.37295225277;0.372836793803;1;0;0;0;0;0;0;0
EC_002;27;6.35651859329;0.356397269744;1;0;0;0;0;0;0;0
EC_002;28;6.63041255138;0.630291960904;1;0;0;0;0;0;0;0
EC_002;29;6.49206228773;0.491937665353;1;0;0;0;0;0;0;0
EC_002;30;6.37312305873;0.373001002111;1;6;4;2;3;3;6;5
EC_002;31;6.30499713735;0.304876913411;1;0;0;0;0;0;0;0
EC_002;32;6.3392349359;0.339114711965;1;0;0;0;0;0;0;0
EC_002;33;6.46223758743;0.462119196171;1;0;0;0;0;0;0;0
EC_002;34;6.40711491136;0.406969762946;1;0;0;0;0;0;0;0
EC_002;35;6.45820385435;0.458085096557;1;0;0;0;0;0;0;0
EC_002;36;6.37317070846;0.373115728004;1;0;0;0;0;0;0;0
EC_002;37;6.45846226251;0.458341672036;1;0;0;0;0;0;0;0
EC_002;38;6.40727728698;0.407159995338;1;0;0;0;0;0;0;0
EC_002;39;6.3222049217;0.32208213201;1;0;0;0;0;0;0;0
EC_002;40;6.42688185286;0.426758696625;1;6;3;2;3;2;6;5
EC_004;1;6.37302982753;0.372955054355;1;0;0;0;0;0;0;0
EC_004;2;6.58399648713;0.583920247807;1;0;0;0;0;0;0;0
EC_004;3;6.32881542058;0.328730384411;1;0;0;0;0;0;0;0
EC_004;4;6.25734142496;0.25726628525;1;0;0;0;0;0;0;0
EC_004;5;6.41115571844;0.411083511011;1;0;0;0;0;0;0;0
EC_004;6;6.42965658218;0.429541856669;1;0;0;0;0;0;0;0
EC_004;7;6.46154514376;0.461470370578;1;0;0;0;0;0;0;0
EC_004;8;6.37752721432;0.377384998668;1;0;0;0;0;0;0;0
EC_004;9;6.37716947598;0.377097635078;1;0;0;0;0;0;0;0
EC_004;10;6.44569103063;0.445617723589;1;7;3;5;5;3;6;6
EC_004;11;6.43119346424;0.431074706836;1;0;0;0;0;0;0;0
EC_004;12;6.46327555639;0.463203715494;1;0;0;0;0;0;0;0
EC_004;13;6.3912403954;0.391168187971;1;0;0;0;0;0;0;0
EC_004;14;6.48124347796;0.480309546299;1;0;0;0;0;0;0;0
EC_004;15;6.3795164008;0.37937235247;1;0;0;0;0;0;0;0
EC_004;16;6.39728419416;0.397198424925;1;0;0;0;0;0;0;0
EC_004;17;6.39338169399;0.393309120019;1;0;0;0;0;0;0;0
EC_004;18;6.41438672615;0.414311219899;1;0;0;0;0;0;0;0
EC_004;19;6.41099407642;0.410918570175;1;0;0;0;0;0;0;0
EC_004;20;6.49730468348;0.497232109509;1;7;5;3;3;4;3;6
EC_004;21;6.51425217108;0.514135612889;1;0;0;0;0;0;0;0
EC_004;22;6.46066326009;0.46058921998;1;0;0;0;0;0;0;0
EC_004;23;6.52798587813;0.52789534394;1;0;0;0;0;0;0;0
EC_004;24;6.56659559549;0.566447148741;1;0;0;0;0;0;0;0
EC_004;25;6.46476662155;0.464621107075;1;0;0;0;0;0;0;0
EC_004;26;6.49967360041;0.499565105996;1;0;0;0;0;0;0;0
EC_004;27;6.54777071464;0.547699240282;1;0;0;0;0;0;0;0
EC_004;28;6.44459362427;0.444478532217;1;0;0;0;0;0;0;0
EC_004;29;6.54850195235;0.548429744917;1;0;0;0;0;0;0;0
EC_004;30;6.48670192002;0.486552373663;1;7;5;2;2;5;3;6
EC_004;31;6.70178183752;0.701708163948;1;0;0;0;0;0;0;0
EC_004;32;6.41268710247;0.412545253351;1;0;0;0;0;0;0;0
EC_004;33;6.46250619903;0.462433991594;1;0;0;0;0;0;0;0
EC_004;34;6.39782996506;0.397779749737;1;0;0;0;0;0;0;0
EC_004;35;6.48239256579;0.482319625284;1;0;0;0;0;0;0;0
EC_004;36;6.36295377515;0.362838316563;1;0;0;0;0;0;0;0
EC_004;37;6.42665942393;0.426510610644;1;0;0;0;0;0;0;0
EC_004;38;6.46863503395;0.468562093444;1;0;0;0;0;0;0;0
EC_004;39;6.41671898956;0.41112859484;1;0;0;0;0;0;0;0
EC_004;40;6.50201869256;0.501942453242;1;7;6;1;2;6;2;7
EC_005;1;6.34138943686;0.341208001343;1;0;0;0;0;0;0;0
EC_005;2;6.30751560895;0.307394651941;1;0;0;0;0;0;0;0
EC_005;3;6.29283069464;0.292686279296;1;0;0;0;0;0;0;0
EC_005;4;6.39146490671;0.391378770652;1;0;0;0;0;0;0;0
EC_005;5;6.28905756894;0.288913520135;1;0;0;0;0;0;0;0
EC_005;6;6.29063294239;0.290513451519;1;0;0;0;0;0;0;0
EC_005;7;6.35895129538;0.358878354632;1;0;0;0;0;0;0;0
EC_005;8;6.30966644455;0.309517630767;1;0;0;0;0;0;0;0
EC_005;9;6.41232962472;0.412211966534;1;0;0;0;0;0;0;0
EC_005;10;6.32442319999;0.324333398577;1;6;4;2;3;5;4;5
EC_005;11;6.34242490219;0.342304311714;1;0;0;0;0;0;0;0
EC_005;12;6.36019641953;0.360078028269;1;0;0;0;0;0;0;0
EC_005;13;6.27379792555;0.273654976354;1;0;0;0;0;0;0;0
EC_005;14;6.30971409428;0.309571511618;1;0;0;0;0;0;0;0
EC_005;15;6.3119085477;0.311761933142;1;0;0;0;0;0;0;0
EC_005;16;6.32384480556;0.32372934659;1;0;0;0;0;0;0;0
EC_005;17;6.34353330826;0.343411251641;1;0;0;0;0;0;0;0
EC_005;18;6.30736166366;0.307274794538;1;0;0;0;0;0;0;0
EC_005;19;6.30974928177;0.309675241419;1;0;0;0;0;0;0;0
EC_005;20;6.37327260558;0.373125624486;1;6;6;2;2;6;3;6
EC_005;21;6.34008346767;0.339935386964;1;0;0;0;0;0;0;0
EC_005;22;6.3599816292;0.359838313463;1;0;0;0;0;0;0;0
EC_005;23;6.29277681379;0.292632398446;1;0;0;0;0;0;0;0
EC_005;24;6.27162253202;0.271548858203;1;0;0;0;0;0;0;0
EC_005;25;6.29163871827;0.29149173717;1;0;0;0;0;0;0;0
EC_005;26;6.43033939071;0.429510651915;1;0;0;0;0;0;0;0
EC_005;27;6.31204709846;0.311900850438;1;0;0;0;0;0;0;0
EC_005;28;6.27156718502;0.271443662256;1;0;0;0;0;0;0;0
EC_005;29;6.2734772062;0.273333523933;1;0;0;0;0;0;0;0
EC_005;30;6.27513798263;0.275083368704;1;6;6;2;3;6;4;6
EC_005;31;6.29136894748;0.291219034088;1;0;0;0;0;0;0;0
EC_005;32;6.29482758494;0.289041807874;1;0;0;0;0;0;0;0
EC_005;33;6.41597849458;0.41105884302;1;0;0;0;0;0;0;0
EC_005;34;6.34641208514;0.346265470585;1;0;0;0;0;0;0;0
EC_005;35;6.27457351657;0.271262226737;1;0;0;0;0;0;0;0
EC_005;36;6.35943805571;0.359360349998;1;0;0;0;0;0;0;0
EC_005;37;6.28848613869;0.288412831413;1;0;0;0;0;0;0;0
EC_005;38;6.31137816953;0.311305228788;1;0;0;0;0;0;0;0
EC_005;39;6.3643448785;0.364201562765;1;0;0;0;0;0;0;0
EC_005;40;6.31024154016;0.3101231489;1;6;6;2;2;6;4;5
EC_006;1;6.50885881824;0.508729430893;1;0;0;0;0;0;0;0
EC_006;2;6.37808486197;0.373296063913;1;0;0;0;0;0;0;0
EC_006;3;6.3557422692;0.355620945649;1;0;0;0;0;0;0;0
EC_006;4;6.47522213938;0.475094218182;1;0;0;0;0;0;0;0
EC_006;5;6.32640213002;0.32628263915;1;0;0;0;0;0;0;0
EC_006;6;6.33944386165;0.33932290464;1;0;0;0;0;0;0;0
EC_006;7;6.49151504889;0.491393725337;1;0;0;0;0;0;0;0
EC_006;8;6.35792462692;0.357800737617;1;0;0;0;0;0;0;0
EC_006;9;6.35859795429;0.358476630739;1;0;0;0;0;0;0;0
EC_006;10;6.35653325475;0.356414496955;1;7;6;3;2;6;1;7
EC_006;11;6.37499715934;0.374872536968;1;0;0;0;0;0;0;0
EC_006;12;6.37329716352;0.37317620651;1;0;0;0;0;0;0;0
EC_006;13;6.4411793382;0.441059847331;1;0;0;0;0;0;0;0
EC_006;14;6.59907368921;0.593128102272;1;0;0;0;0;0;0;0
EC_006;15;6.44087401337;0.440753422899;1;0;0;0;0;0;0;0
EC_006;16;6.49182367253;0.491674125683;1;0;0;0;0;0;0;0
EC_006;17;6.39106098359;0.390938193899;1;0;0;0;0;0;0;0
EC_006;18;6.52584521461;0.525690902786;1;0;0;0;0;0;0;0
EC_006;19;6.52922614636;0.529104456275;1;0;0;0;0;0;0;0
EC_006;20;6.48086093536;0.474507393405;1;7;7;2;1;7;1;7
EC_006;21;6.4616089775;0.461488387027;1;0;0;0;0;0;0;0
EC_006;22;6.35903999718;0.356167084884;1;0;0;0;0;0;0;0
EC_006;23;6.44114744953;0.441029058273;1;0;0;0;0;0;0;0
EC_006;24;6.33915796326;0.339034073957;1;0;0;0;0;0;0;0
EC_006;25;6.4424904389;0.442369481886;1;0;0;0;0;0;0;0
EC_006;26;6.49176356056;0.491643336625;1;0;0;0;0;0;0;0
EC_006;27;6.28829334055;0.288172016998;1;0;0;0;0;0;0;0
EC_006;28;6.38837867022;0.388250382481;1;0;0;0;0;0;0;0
EC_006;29;6.40710794717;0.406987356693;1;0;0;0;0;0;0;0
EC_006;30;6.35627484659;0.356154622647;1;7;6;2;1;7;1;7
EC_006;31;6.42432562801;0.424146758242;1;0;0;0;0;0;0;0
EC_006;32;6.45016277881;0.443366094357;1;0;0;0;0;0;0;0
EC_006;33;6.37350022469;0.37338073382;1;0;0;0;0;0;0;0
EC_006;34;6.4082390785;0.40712517438;1;0;0;0;0;0;0;0
EC_006;35;6.40695180266;0.406829012969;1;0;0;0;0;0;0;0
EC_006;36;6.47532330343;0.475202346419;1;0;0;0;0;0;0;0
EC_006;37;6.37310326577;0.372981209145;1;0;0;0;0;0;0;0
EC_006;38;6.39157926606;0.390119351583;1;0;0;0;0;0;0;0
EC_006;39;6.39381367195;0.393765655686;1;0;0;0;0;0;0;0
EC_006;40;6.37322165702;0.373079807437;1;6;6;1;1;7;1;7
EC_007;1;6.64950791582;0.649364025131;1;0;0;0;0;0;0;0
EC_007;2;6.52989045269;0.529813930669;1;0;0;0;0;0;0;0
EC_007;3;6.37638618357;0.37631368902;1;0;0;0;0;0;0;0
EC_007;4;6.39579238734;0.395717695992;1;0;0;0;0;0;0;0
EC_007;5;6.32332530279;0.32325390665;1;0;0;0;0;0;0;0
EC_007;6;6.44619879615;0.446120443462;1;0;0;0;0;0;0;0
EC_007;7;6.4629186743;0.462868147801;1;0;0;0;0;0;0;0
EC_007;8;6.41614651221;0.416101111583;1;0;0;0;0;0;0;0
EC_007;9;6.41492252603;0.414848933086;1;0;0;0;0;0;0;0
EC_007;10;6.43037191898;0.430300522839;1;7;6;1;2;2;2;6
EC_007;11;6.48359756008;0.483526530074;1;0;0;0;0;0;0;0
EC_007;12;6.35478207701;0.354709582461;1;0;0;0;0;0;0;0
EC_007;13;6.56843777918;0.568335627773;1;0;0;0;0;0;0;0
EC_007;14;6.41296334266;0.412889383577;1;0;0;0;0;0;0;0
EC_007;15;6.42763470072;0.427491542303;1;0;0;0;0;0;0;0
EC_007;16;6.40014535522;0.393031736501;1;0;0;0;0;0;0;0
EC_007;17;6.39409682049;0.394012609657;1;0;0;0;0;0;0;0
EC_007;18;6.34231228307;0.342237957851;1;0;0;0;0;0;0;0
EC_007;19;6.37773685213;0.377662160777;1;0;0;0;0;0;0;0
EC_007;20;6.50459827771;0.50131551969;1;7;6;2;2;2;1;7
EC_007;21;6.39846626441;0.394179200656;1;0;0;0;0;0;0;0
EC_007;22;6.35936278028;0.359290651865;1;0;0;0;0;0;0;0
EC_007;23;6.36124434323;0.361172580952;1;0;0;0;0;0;0;0
EC_007;24;6.53539015246;0.53524260043;1;0;0;0;0;0;0;0
EC_007;25;6.36094118422;0.360822190653;1;0;0;0;0;0;0;0
EC_007;26;6.43076624537;0.425526866918;1;0;0;0;0;0;0;0
EC_007;27;6.44627788111;0.44620318976;1;0;0;0;0;0;0;0
EC_007;28;6.46295711838;0.462885356103;1;0;0;0;0;0;0;0
EC_007;29;6.43222199441;0.428684407082;1;0;0;0;0;0;0;0
EC_007;30;6.61774212446;0.617671460582;1;7;7;1;1;2;1;6
EC_007;31;6.44721774725;0.447146351108;1;0;0;0;0;0;0;0
EC_007;32;6.37995928589;0.375109840219;1;0;0;0;0;0;0;0
EC_007;33;6.32802280283;0.327881475081;1;0;0;0;0;0;0;0
EC_007;34;6.41711090933;0.410816332508;1;0;0;0;0;0;0;0
EC_007;35;6.52457894583;0.524507549684;1;0;0;0;0;0;0;0
EC_007;36;6.34444135265;0.344369224235;1;0;0;0;0;0;0;0
EC_007;37;6.35781659612;0.357741172507;1;0;0;0;0;0;0;0
EC_007;38;6.44627275523;0.44620135909;1;0;0;0;0;0;0;0
EC_007;39;6.41988840234;0.410845989367;1;0;0;0;0;0;0;0
EC_007;40;6.715209209;0.705397182232;1;7;7;1;1;2;1;7
EC_008;1;6.54260446036;0.542476537747;1;0;0;0;0;0;0;0
EC_008;2;6.51070224748;0.510580189516;1;0;0;0;0;0;0;0
EC_008;3;6.35927486574;0.356177232561;1;0;0;0;0;0;0;0
EC_008;4;6.36606942569;0.35617613294;1;0;0;0;0;0;0;0
EC_008;5;6.40714724516;0.407028852596;1;0;0;0;0;0;0;0
EC_008;6;6.34316871269;0.343055451702;1;0;0;0;0;0;0;0
EC_008;7;6.39019255102;0.390072692298;1;0;0;0;0;0;0;0
EC_008;8;6.35603464833;0.355914789614;1;0;0;0;0;0;0;0
EC_008;9;6.39030984396;0.390164327406;1;0;0;0;0;0;0;0
EC_008;10;6.41056560121;0.410447575188;1;5;6;3;4;4;2;4
EC_008;11;6.39431393162;0.390165793568;1;0;0;0;0;0;0;0
EC_008;12;6.36839622434;0.358195037629;1;0;0;0;0;0;0;0
EC_008;13;6.32833775381;0.322514159457;1;0;0;0;0;0;0;0
EC_008;14;6.39017092513;0.390026874745;1;0;0;0;0;0;0;0
EC_008;15;6.35636856667;0.356250540647;1;0;0;0;0;0;0;0
EC_008;16;6.32634780582;0.326221349367;1;0;0;0;0;0;0;0
EC_008;17;6.34051899193;0.340399499745;1;0;0;0;0;0;0;0
EC_008;18;6.30566026394;0.305541504838;1;0;0;0;0;0;0;0
EC_008;19;6.34056737526;0.33912540521;1;0;0;0;0;0;0;0
EC_008;20;6.35606433811;0.35594594555;1;6;6;2;2;5;2;4
EC_008;21;6.40789975266;0.407131117377;1;0;0;0;0;0;0;0
EC_008;22;6.39164185188;0.391523459321;1;0;0;0;0;0;0;0
EC_008;23;6.39693396261;0.390214543445;1;0;0;0;0;0;0;0
EC_008;24;6.30550924928;0.305430443089;1;0;0;0;0;0;0;0
EC_008;25;6.33932846861;0.339207876807;1;0;0;0;0;0;0;0
EC_008;26;6.34088809814;0.339552058271;1;0;0;0;0;0;0;0
EC_008;27;6.41508211239;0.406919623548;1;0;0;0;0;0;0;0
EC_008;28;6.35638616061;0.356265202265;1;0;0;0;0;0;0;0
EC_008;29;6.32196544843;0.321844490091;1;0;0;0;0;0;0;0
EC_008;30;6.37179918569;0.371678960432;1;7;6;2;1;6;1;5
EC_008;31;6.35912605032;0.359006924682;1;0;0;0;0;0;0;0
EC_008;32;6.39011264521;0.389991686863;1;0;0;0;0;0;0;0
EC_008;33;6.39274183971;0.390350529944;1;0;0;0;0;0;0;0
EC_008;34;6.35611125528;0.355992129644;1;0;0;0;0;0;0;0
EC_008;35;6.38050562053;0.37667014147;1;0;0;0;0;0;0;0
EC_008;36;6.45797687277;0.457883038415;1;0;0;0;0;0;0;0
EC_008;37;6.37348857054;0.373369444897;1;0;0;0;0;0;0;0
EC_008;38;6.40705487697;0.406936484408;1;0;0;0;0;0;0;0
EC_008;39;6.37568964582;0.374358737517;1;0;0;0;0;0;0;0
EC_008;40;6.37358973569;0.373468410812;1;7;6;2;1;5;2;6
EC_009;1;6.67778905089;0.677662594906;1;0;0;0;0;0;0;0
EC_009;2;6.407982195;0.407861970177;1;0;0;0;0;0;0;0
EC_009;3;6.50823283442;0.508113342682;1;0;0;0;0;0;0;0
EC_009;4;6.49200138405;0.491872728832;1;0;0;0;0;0;0;0
EC_009;5;6.39081973534;0.390700243602;1;0;0;0;0;0;0;0
EC_009;6;6.39199889159;0.389776198565;1;0;0;0;0;0;0;0
EC_009;7;6.40668208086;0.406562589114;1;0;0;0;0;0;0;0
EC_009;8;6.39313736199;0.393014204857;1;0;0;0;0;0;0;0
EC_009;9;6.42922093583;0.423485698744;1;0;0;0;0;0;0;0
EC_009;10;6.47491479799;0.474796039325;1;5;2;6;5;3;4;4
EC_009;11;6.42388522635;0.423818149696;1;0;0;0;0;0;0;0
EC_009;12;6.39035459724;0.390235838579;1;0;0;0;0;0;0;0
EC_009;13;6.39013430725;0.390015548588;1;0;0;0;0;0;0;0
EC_009;14;6.40698667484;0.406864250783;1;0;0;0;0;0;0;0
EC_009;15;6.44616237242;0.442978613911;1;0;0;0;0;0;0;0
EC_009;16;6.38994407347;0.389823115567;1;0;0;0;0;0;0;0
EC_009;17;6.40624150087;0.406118710281;1;0;0;0;0;0;0;0
EC_009;18;6.42419165303;0.424050168938;1;0;0;0;0;0;0;0
EC_009;19;6.4403039782;0.440184852992;1;0;0;0;0;0;0;0
EC_009;20;6.40662783307;0.406499177852;1;6;3;5;3;4;2;5
EC_009;21;6.40937027852;0.409245655229;1;0;0;0;0;0;0;0
EC_009;22;6.46117434725;0.457423186236;1;0;0;0;0;0;0;0
EC_009;23;6.40610368218;0.40598272428;1;0;0;0;0;0;0;0
EC_009;24;6.37977481305;0.373082908942;1;0;0;0;0;0;0;0
EC_009;25;6.42313931931;0.42301799487;1;0;0;0;0;0;0;0
EC_009;26;6.46085069324;0.457403026587;1;0;0;0;0;0;0;0
EC_009;27;6.40703579108;0.406866450017;1;0;0;0;0;0;0;0
EC_009;28;6.37515788671;0.375013103772;1;0;0;0;0;0;0;0
EC_009;29;6.38968126494;0.38956140666;1;0;0;0;0;0;0;0
EC_009;30;6.38934001705;0.38922052531;1;5;3;5;3;3;2;5
EC_009;31;6.35789609497;0.355698326603;1;0;0;0;0;0;0;0
EC_009;32;6.42435512946;0.42219914655;1;0;0;0;0;0;0;0
EC_009;33;6.37567910529;0.373117730155;1;0;0;0;0;0;0;0
EC_009;34;6.50855172343;0.508418303203;1;0;0;0;0;0;0;0
EC_009;35;6.44109863493;0.440969613176;1;0;0;0;0;0;0;0
EC_009;36;6.45745910707;0.457338515707;1;0;0;0;0;0;0;0
EC_009;37;6.38944411415;0.389315458932;1;0;0;0;0;0;0;0
EC_009;38;6.44086111761;0.44077168207;1;0;0;0;0;0;0;0
EC_009;39;6.47459554245;0.474476050703;1;0;0;0;0;0;0;0
EC_009;40;6.52567569648;0.525555471659;1;6;3;5;3;2;2;5
EC_010;1;6.59439631822;0.594323010935;1;0;0;0;0;0;0;0
EC_010;2;6.37669642209;0.37665280426;1;0;0;0;0;0;0;0
EC_010;3;6.48366897072;0.483597129581;1;0;0;0;0;0;0;0
EC_010;4;6.3644163531;0.364344511961;1;0;0;0;0;0;0;0
EC_010;5;6.40973234779;0.409661606265;1;0;0;0;0;0;0;0
EC_010;6;6.29551080879;0.295453262577;1;0;0;0;0;0;0;0
EC_010;7;6.3258743176;0.323737410391;1;0;0;0;0;0;0;0
EC_010;8;6.32786387718;0.327721294519;1;0;0;0;0;0;0;0
EC_010;9;6.30970383126;0.309626492079;1;0;0;0;0;0;0;0
EC_010;10;6.32639150046;0.326348249166;1;7;6;4;4;6;2;5
EC_010;11;6.79057979461;0.790505387718;1;0;0;0;0;0;0;0
EC_010;12;6.39352080937;0.393382625149;1;0;0;0;0;0;0;0
EC_010;13;6.37610006737;0.375645928771;1;0;0;0;0;0;0;0
EC_010;14;6.37928306946;0.379211594866;1;0;0;0;0;0;0;0
EC_010;15;6.38046148399;0.380343459268;1;0;0;0;0;0;0;0
EC_010;16;6.31268670448;0.312612664125;1;0;0;0;0;0;0;0
EC_010;17;6.3489331225;0.348785408332;1;0;0;0;0;0;0;0
EC_010;18;6.34903208733;0.348887305452;1;0;0;0;0;0;0;0
EC_010;19;6.32599527461;0.325918668505;1;0;0;0;0;0;0;0
EC_010;20;6.34296810913;0.342849717877;1;7;5;4;4;5;1;6
EC_010;21;6.36056918704;0.360484883672;1;0;0;0;0;0;0;0
EC_010;22;6.32743906149;0.327355124655;1;0;0;0;0;0;0;0
EC_010;23;6.3157208928;0.310492984127;1;0;0;0;0;0;0;0
EC_010;24;6.30449021751;0.304413977939;1;0;0;0;0;0;0;0
EC_010;25;6.44971193904;0.44963606601;1;0;0;0;0;0;0;0
EC_010;26;6.57425221076;0.574178170412;1;0;0;0;0;0;0;0
EC_010;27;6.43209803236;0.431977441884;1;0;0;0;0;0;0;0
EC_010;28;6.44340861258;0.443334572226;1;0;0;0;0;0;0;0
EC_010;29;6.35912503363;0.359050993276;1;0;0;0;0;0;0;0
EC_010;30;6.36401426266;0.363942054993;1;6;3;3;1;7;1;5
EC_010;31;6.41580695554;0.412553211922;1;0;0;0;0;0;0;0
EC_010;32;6.35981522167;0.359690232758;1;0;0;0;0;0;0;0
EC_010;33;6.31472611301;0.314654271872;1;0;0;0;0;0;0;0
EC_010;34;6.41373272606;0.413662717604;1;0;0;0;0;0;0;0
EC_010;35;6.3657798685;0.365636186233;1;0;0;0;0;0;0;0
EC_010;36;6.30968000639;0.309607065649;1;0;0;0;0;0;0;0
EC_010;37;6.37972474583;0.379649605864;1;0;0;0;0;0;0;0
EC_010;38;6.37580867093;0.375736463261;1;0;0;0;0;0;0;0
EC_010;39;6.31662880346;0.309853011573;1;0;0;0;0;0;0;0
EC_010;40;6.3223599666;0.322213718578;1;5;3;5;5;4;4;5
EC_011;1;6.49447847544;0.494359350671;1;0;0;0;0;0;0;0
EC_011;2;6.40463274384;0.40451471869;1;0;0;0;0;0;0;0
EC_011;3;6.40716845195;0.407024402617;1;0;0;0;0;0;0;0
EC_011;4;6.32243665495;0.322289306775;1;0;0;0;0;0;0;0
EC_011;5;6.3731295579;0.373008233904;1;0;0;0;0;0;0;0
EC_011;6;6.28857076671;0.288430016215;1;0;0;0;0;0;0;0
EC_011;7;6.33920392401;0.339162871779;1;0;0;0;0;0;0;0
EC_011;8;6.41049881388;0.410376756815;1;0;0;0;0;0;0;0
EC_011;9;6.33571191893;0.335592794161;1;0;0;0;0;0;0;0
EC_011;10;6.4072553214;0.40710833976;1;6;4;7;3;5;5;5
EC_011;11;6.37497580851;0.374857783356;1;0;0;0;0;0;0;0
EC_011;12;6.43892968047;0.438810189163;1;0;0;0;0;0;0;0
EC_011;13;6.32242089382;0.322306167511;1;0;0;0;0;0;0;0
EC_011;14;6.37698260265;0.376861645198;1;0;0;0;0;0;0;0
EC_011;15;6.35241211158;0.35231791138;1;0;0;0;0;0;0;0
EC_011;16;6.39028902234;0.390168064886;1;0;0;0;0;0;0;0
EC_011;17;6.42391886027;0.4237715121;1;0;0;0;0;0;0;0
EC_011;18;6.34043072583;0.340284477273;1;0;0;0;0;0;0;0
EC_011;19;6.28718085559;0.28703900548;1;0;0;0;0;0;0;0
EC_011;20;6.36624671216;0.356235100241;1;6;5;6;3;5;5;6
EC_011;21;6.42388037381;0.423756850591;1;0;0;0;0;0;0;0
EC_011;22;6.42708281407;0.425129900976;1;0;0;0;0;0;0;0
EC_011;23;6.32122268194;0.321103190638;1;0;0;0;0;0;0;0
EC_011;24;6.33941724897;0.339297391131;1;0;0;0;0;0;0;0
EC_011;25;6.4779707151;0.477853056485;1;0;0;0;0;0;0;0
EC_011;26;6.33635922458;0.336238633665;1;0;0;0;0;0;0;0
EC_011;27;6.27159493767;0.271477645596;1;0;0;0;0;0;0;0
EC_011;28;6.41652469438;0.406998744975;1;0;0;0;0;0;0;0
EC_011;29;6.52560705981;0.52548536928;1;0;0;0;0;0;0;0
EC_011;30;6.30566718666;0.305549894584;1;7;5;7;4;5;4;6
EC_011;31;6.33934320835;0.339219318592;1;0;0;0;0;0;0;0
EC_011;32;6.40957293954;0.409455280929;1;0;0;0;0;0;0;0
EC_011;33;6.52360429758;0.523485172816;1;0;0;0;0;0;0;0
EC_011;34;6.33933990951;0.339221517818;1;0;0;0;0;0;0;0
EC_011;35;6.35864728513;0.358527060749;1;0;0;0;0;0;0;0
EC_011;36;6.34375229086;0.33677377877;1;0;0;0;0;0;0;0
EC_011;37;6.39018675831;0.390066900469;1;0;0;0;0;0;0;0
EC_011;38;6.39433596556;0.394215741183;1;0;0;0;0;0;0;0
EC_011;39;6.38591586053;0.385797468837;1;0;0;0;0;0;0;0
EC_011;40;6.35634396195;0.356222637957;1;7;4;7;3;4;4;6
EC_012;1;6.47789834514;0.477775554099;1;0;0;0;0;0;0;0
EC_012;2;6.3562120539;0.355572074311;1;0;0;0;0;0;0;0
EC_012;3;6.35571135967;0.355593700197;1;0;0;0;0;0;0;0
EC_012;4;6.37324738693;0.37320193592;1;0;0;0;0;0;0;0
EC_012;5;6.35596830452;0.355845146932;1;0;0;0;0;0;0;0
EC_012;6;6.29105326126;0.290931569834;1;0;0;0;0;0;0;0
EC_012;7;6.30539965369;0.30527832881;1;0;0;0;0;0;0;0
EC_012;8;6.33923390118;0.339086918466;1;0;0;0;0;0;0;0
EC_012;9;6.36322837082;0.356080832428;1;0;0;0;0;0;0;0
EC_012;10;6.32360828264;0.322129292005;1;7;7;2;1;2;1;7
EC_012;11;6.33808662963;0.337963838587;1;0;0;0;0;0;0;0
EC_012;12;6.34024481968;0.340119096316;1;0;0;0;0;0;0;0
EC_012;13;6.27092396045;0.270799703249;1;0;0;0;0;0;0;0
EC_012;14;6.35621535277;0.356094027884;1;0;0;0;0;0;0;0
EC_012;15;6.33892160873;0.338875058097;1;0;0;0;0;0;0;0
EC_012;16;6.34458429184;0.337775070266;1;0;0;0;0;0;0;0
EC_012;17;6.32942564581;0.324607471854;1;0;0;0;0;0;0;0
EC_012;18;6.38956759959;0.389447374325;1;0;0;0;0;0;0;0
EC_012;19;6.38975306904;0.389629178378;1;0;0;0;0;0;0;0
EC_012;20;6.3393537599;0.339234634259;1;7;7;1;1;2;1;7
EC_012;21;6.33842751223;0.338313151617;1;0;0;0;0;0;0;0
EC_012;22;6.40886705285;0.405429270159;1;0;0;0;0;0;0;0
EC_012;23;6.47444516775;0.474403015601;1;0;0;0;0;0;0;0
EC_012;24;6.35583195148;0.355712825836;1;0;0;0;0;0;0;0
EC_012;25;6.28831813657;0.288197911306;1;0;0;0;0;0;0;0
EC_012;26;6.29307839713;0.28696633546;1;0;0;0;0;0;0;0
EC_012;27;6.34860010879;0.342225237628;1;0;0;0;0;0;0;0
EC_012;28;6.2887880414;0.288666349976;1;0;0;0;0;0;0;0
EC_012;29;6.42359867928;0.423474055535;1;0;0;0;0;0;0;0
EC_012;30;6.36060870636;0.355691566491;1;7;7;1;1;2;1;7
EC_012;31;6.33911330938;0.339072256848;1;0;0;0;0;0;0;0
EC_012;32;6.29201176448;0.291893005383;1;0;0;0;0;0;0;0
EC_012;33;6.40919254076;0.406866108646;1;0;0;0;0;0;0;0
EC_012;34;6.28833133202;0.288212206383;1;0;0;0;0;0;0;0
EC_012;35;6.32222166019;0.322106199957;1;0;0;0;0;0;0;0
EC_012;36;6.32243608635;0.322318060327;1;0;0;0;0;0;0;0
EC_012;37;6.32578699896;0.325701228497;1;0;0;0;0;0;0;0
EC_012;38;6.32342611205;0.323318349161;1;0;0;0;0;0;0;0
EC_012;39;6.35613874582;0.356018520555;1;0;0;0;0;0;0;0
EC_012;40;6.28821477217;0.288096746147;1;7;7;1;1;2;1;7
EC_013;1;6.5597231457;0.559601821259;1;0;0;0;0;0;0;0
EC_013;2;6.38170757365;0.372922731362;1;0;0;0;0;0;0;0
EC_013;3;6.32330103635;0.321769636049;1;0;0;0;0;0;0;0
EC_013;4;6.32470854645;0.324611780127;1;0;0;0;0;0;0;0
EC_013;5;6.44055175862;0.440431533797;1;0;0;0;0;0;0;0
EC_013;6;6.323949444;0.322104652774;1;0;0;0;0;0;0;0
EC_013;7;6.37331052971;0.373188838738;1;0;0;0;0;0;0;0
EC_013;8;6.37574434925;0.37562412443;1;0;0;0;0;0;0;0
EC_013;9;6.33927297705;0.339153118771;1;0;0;0;0;0;0;0
EC_013;10;6.25483813267;0.254716808236;1;5;2;6;5;3;3;3
EC_013;11;6.30547440787;0.305354183054;1;0;0;0;0;0;0;0
EC_013;12;6.40945568213;0.409334724227;1;0;0;0;0;0;0;0
EC_013;13;6.34405777829;0.339146521068;1;0;0;0;0;0;0;0
EC_013;14;6.3052383567;0.305120331117;1;0;0;0;0;0;0;0
EC_013;15;6.30564741432;0.305562010716;1;0;0;0;0;0;0;0
EC_013;16;6.32233337316;0.322288288856;1;0;0;0;0;0;0;0
EC_013;17;6.29282404438;0.292702353401;1;0;0;0;0;0;0;0
EC_013;18;6.38982164941;0.389702890747;1;0;0;0;0;0;0;0
EC_013;19;6.37325225;0.373133124797;1;0;0;0;0;0;0;0
EC_013;20;6.28867518846;0.288554963635;1;6;2;5;3;3;3;4
EC_013;21;6.37289634055;0.37277464957;1;0;0;0;0;0;0;0
EC_013;22;6.3884852479;0.388443462445;1;0;0;0;0;0;0;0
EC_013;23;6.34169176849;0.341573742899;1;0;0;0;0;0;0;0
EC_013;24;6.37973449375;0.373380538681;1;0;0;0;0;0;0;0
EC_013;25;6.3052955368;0.305209400115;1;0;0;0;0;0;0;0
EC_013;26;6.42396879726;0.423847106284;1;0;0;0;0;0;0;0
EC_013;27;6.35904372885;0.358922770948;1;0;0;0;0;0;0;0
EC_013;28;6.29785112795;0.28942805974;1;0;0;0;0;0;0;0
EC_013;29;6.37353118625;0.373409861807;1;0;0;0;0;0;0;0
EC_013;30;6.39117124633;0.390275424801;1;5;3;4;3;2;3;4
EC_013;31;6.32224980225;0.322129943971;1;0;0;0;0;0;0;0
EC_013;32;6.42425213197;0.424131540615;1;0;0;0;0;0;0;0
EC_013;33;6.27139873515;0.271279243404;1;0;0;0;0;0;0;0
EC_013;34;6.52809925292;0.528002486601;1;0;0;0;0;0;0;0
EC_013;35;6.37329843393;0.373174910253;1;0;0;0;0;0;0;0
EC_013;36;6.50892156137;0.508798770774;1;0;0;0;0;0;0;0
EC_013;37;6.46060804436;0.460490018774;1;0;0;0;0;0;0;0
EC_013;38;6.42403110891;0.423913816398;1;0;0;0;0;0;0;0
EC_013;39;6.35610958346;0.355994856724;1;0;0;0;0;0;0;0
EC_013;40;6.37316391408;0.373114431303;1;4;3;4;3;2;3;4
EC_014;1;7.64449955484;1.64437896521;1;0;0;0;0;0;0;0
EC_014;2;6.27144397109;0.271322648383;1;0;0;0;0;0;0;0
EC_014;3;8.22041146357;2.22029087393;1;0;0;0;0;0;0;0
EC_014;4;8.39945665023;2.39018517656;1;0;0;0;0;0;0;0
EC_014;5;6.88170889809;0.881656850279;1;0;0;0;0;0;0;0
EC_014;6;8.89826816423;2.89814427579;1;0;0;0;0;0;0;0
EC_014;7;6.16952776879;0.169408278754;1;0;0;0;0;0;0;0
EC_014;8;6.54247192626;0.542350237019;1;0;0;0;0;0;0;0
EC_014;9;7.74592423525;1.7458120759;1;0;0;0;0;0;0;0
EC_014;10;7.37442275501;1.37430399804;1;7;5;6;3;6;5;6
EC_014;11;6.05194334413;0.0518557425407;1;0;0;0;0;0;0;0
EC_014;12;11.2408109048;5.24068738291;1;0;0;0;0;0;0;0
EC_014;13;15.0099590912;NA;0;0;0;0;0;0;0;0
EC_014;14;15.0000630438;NA;0;0;0;0;0;0;0;0
EC_014;15;8.32222540292;2.32209968181;1;0;0;0;0;0;0;0
EC_014;16;7.66076412777;1.66064133893;1;0;0;0;0;0;0;0
EC_014;17;8.91547399607;2.91535157377;1;0;0;0;0;0;0;0
EC_014;18;7.50846308326;1.50832453347;1;0;0;0;0;0;0;0
EC_014;19;6.30501297347;0.304890917694;1;0;0;0;0;0;0;0
EC_014;20;6.5099644059;0.508729919901;1;6;5;6;3;3;5;6
EC_014;21;10.1527914668;4.15266941103;1;0;0;0;0;0;0;0
EC_014;22;8.03730214961;2.03717826117;1;0;0;0;0;0;0;0
EC_014;23;9.22899385359;3.22017065083;1;0;0;0;0;0;0;0
EC_014;24;6.15268040704;0.152574478761;1;0;0;0;0;0;0;0
EC_014;25;7.37685324095;1.37672788637;1;0;0;0;0;0;0;0
EC_014;26;6.13937926027;0.13926123637;1;0;0;0;0;0;0;0
EC_014;27;6.66121569747;0.661094374768;1;0;0;0;0;0;0;0
EC_014;28;13.6821128917;7.67824119467;1;0;0;0;0;0;0;0
EC_014;29;8.98327506056;2.98315520399;1;0;0;0;0;0;0;0
EC_014;30;7.6115265365;1.6114052138;1;7;5;6;3;6;5;6
EC_014;31;9.30461748344;3.30449835994;1;0;0;0;0;0;0;0
EC_014;32;7.93261751717;1.93249326219;1;0;0;0;0;0;0;0
EC_014;33;10.8349388127;4.83485084455;1;0;0;0;0;0;0;0
EC_014;34;8.27129662448;2.27117456871;1;0;0;0;0;0;0;0
EC_014;35;10.4487495881;4.44052493511;1;0;0;0;0;0;0;0
EC_014;36;10.0170757123;4.01695548923;1;0;0;0;0;0;0;0
EC_014;37;6.13567763495;0.135568407861;1;0;0;0;0;0;0;0
EC_014;38;8.62745059948;2.62733000985;1;0;0;0;0;0;0;0
EC_014;39;12.2713655328;6.27123871213;1;0;0;0;0;0;0;0
EC_014;40;14.5255882777;8.52546292309;1;6;5;5;3;5;5;6
EC_016;1;6.46117646455;0.46113577901;1;0;0;0;0;0;0;0
EC_016;2;6.51900051388;0.518887254137;1;0;0;0;0;0;0;0
EC_016;3;6.43244807462;0.432374034268;1;0;0;0;0;0;0;0
EC_016;4;6.44513023405;0.444983619489;1;0;0;0;0;0;0;0
EC_016;5;6.54476142512;0.544686285161;1;0;0;0;0;0;0;0
EC_016;6;6.46913690208;0.469020343503;1;0;0;0;0;0;0;0
EC_016;7;6.42647096555;0.426401690173;1;0;0;0;0;0;0;0
EC_016;8;6.39609352836;0.395975870176;1;0;0;0;0;0;0;0
EC_016;9;6.37318903528;0.373043886869;1;0;0;0;0;0;0;0
EC_016;10;6.52893511646;0.52879766531;1;5;1;7;6;1;2;2
EC_016;11;6.42781688721;0.427703994001;1;0;0;0;0;0;0;0
EC_016;12;6.41146753111;0.411349139849;1;0;0;0;0;0;0;0
EC_016;13;6.46581095079;0.465741308872;1;0;0;0;0;0;0;0
EC_016;14;6.43592833774;0.43578428893;1;0;0;0;0;0;0;0
EC_016;15;6.37615724705;0.376013931315;1;0;0;0;0;0;0;0
EC_016;16;6.39214446519;0.392002249067;1;0;0;0;0;0;0;0
EC_016;17;6.43264966964;0.432536043357;1;0;0;0;0;0;0;0
EC_016;18;6.39690320727;0.396832099205;1;0;0;0;0;0;0;0
EC_016;19;6.41134180912;0.411271067596;1;0;0;0;0;0;0;0
EC_016;20;6.39883851946;0.398767411395;1;5;1;7;6;1;2;2
EC_016;21;6.51516544353;0.515046685741;1;0;0;0;0;0;0;0
EC_016;22;6.38266216853;0.382542677665;1;0;0;0;0;0;0;0
EC_016;23;6.36369977443;0.363576618203;1;0;0;0;0;0;0;0
EC_016;24;6.43048197337;0.430336824958;1;0;0;0;0;0;0;0
EC_016;25;6.4130011194;0.41285890328;1;0;0;0;0;0;0;0
EC_016;26;6.44891582198;0.44884288124;1;0;0;0;0;0;0;0
EC_016;27;6.41266353938;0.412589865562;1;0;0;0;0;0;0;0
EC_016;28;6.35673228401;0.346495655444;1;0;0;0;0;0;0;0
EC_016;29;6.37950738974;0.379458640399;1;0;0;0;0;0;0;0
EC_016;30;6.44984939019;0.449779015205;1;6;1;7;6;1;1;2
EC_016;31;6.3902604681;0.390189726571;1;0;0;0;0;0;0;0
EC_016;32;6.38993718299;0.389867174539;1;0;0;0;0;0;0;0
EC_016;33;6.37983470674;0.379635310944;1;0;0;0;0;0;0;0
EC_016;34;6.36111092784;0.36106034582;1;0;0;0;0;0;0;0
EC_016;35;6.38181583598;0.381674719471;1;0;0;0;0;0;0;0
EC_016;36;6.59084604665;0.583538776986;1;0;0;0;0;0;0;0
EC_016;37;6.466799866;0.46665068568;1;0;0;0;0;0;0;0
EC_016;38;6.65079490749;0.650648659466;1;0;0;0;0;0;0;0
EC_016;39;6.62447649439;0.624363967712;1;0;0;0;0;0;0;0
EC_016;40;6.44895284216;0.448839582413;1;6;1;7;4;1;1;2
EC_017;1;6.50681134591;0.506669496328;1;0;0;0;0;0;0;0
EC_017;2;6.42771059166;0.427640216667;1;0;0;0;0;0;0;0
EC_017;3;6.47988484892;0.479811175109;1;0;0;0;0;0;0;0
EC_017;4;6.40483212266;0.394911815008;1;0;0;0;0;0;0;0
EC_017;5;6.50182791702;0.501707326549;1;0;0;0;0;0;0;0
EC_017;6;6.39370920908;0.393639200628;1;0;0;0;0;0;0;0
EC_017;7;6.41160828108;0.411537173021;1;0;0;0;0;0;0;0
EC_017;8;6.4119528253;0.411897478303;1;0;0;0;0;0;0;0
EC_017;9;6.37922112481;0.379146717923;1;0;0;0;0;0;0;0
EC_017;10;6.37597727767;0.375865117537;1;5;5;6;5;2;1;3
EC_017;11;6.51722977654;0.517159035013;1;0;0;0;0;0;0;0
EC_017;12;6.44840047181;0.442394406362;1;0;0;0;0;0;0;0
EC_017;13;6.43316025485;0.433018038722;1;0;0;0;0;0;0;0
EC_017;14;6.41311877759;0.413001119402;1;0;0;0;0;0;0;0
EC_017;15;6.39719570331;0.393604746207;1;0;0;0;0;0;0;0
EC_017;16;6.45000443509;0.449888976125;1;0;0;0;0;0;0;0
EC_017;17;6.41589749003;0.415782764139;1;0;0;0;0;0;0;0
EC_017;18;6.47994569397;0.479874952443;1;0;0;0;0;0;0;0
EC_017;19;6.47274801869;0.472630360503;1;0;0;0;0;0;0;0
EC_017;20;6.3746775396;0.374602399641;1;3;2;6;4;2;1;4
EC_017;21;6.52224509409;0.522172153351;1;0;0;0;0;0;0;0
EC_017;22;6.56572510796;0.565654366438;1;0;0;0;0;0;0;0
EC_017;23;6.46580032123;0.465654073209;1;0;0;0;0;0;0;0
EC_017;24;6.46665618373;0.466581776836;1;0;0;0;0;0;0;0
EC_017;25;6.46242781982;0.46234828142;1;0;0;0;0;0;0;0
EC_017;26;6.44808598357;0.444235518697;1;0;0;0;0;0;0;0
EC_017;27;6.46073405512;0.460660381301;1;0;0;0;0;0;0;0
EC_017;28;6.46714294407;0.46706707103;1;0;0;0;0;0;0;0
EC_017;29;6.41703778477;0.410528831387;1;0;0;0;0;0;0;0
EC_017;30;6.46797644784;0.46279728851;1;3;2;5;4;4;1;3
EC_017;31;6.64220622657;0.642135118513;1;0;0;0;0;0;0;0
EC_017;32;6.43449628002;0.434419307378;1;0;0;0;0;0;0;0
EC_017;33;6.42758230392;0.427462079977;1;0;0;0;0;0;0;0
EC_017;34;6.44404382016;0.443972345562;1;0;0;0;0;0;0;0
EC_017;35;6.6587260221;0.658654547507;1;0;0;0;0;0;0;0
EC_017;36;6.44458446135;0.444467902774;1;0;0;0;0;0;0;0
EC_017;37;6.4371474378;0.437103453432;1;0;0;0;0;0;0;0
EC_017;38;6.53248428842;0.532414279965;1;0;0;0;0;0;0;0
EC_017;39;6.41577176805;0.415695528475;1;0;0;0;0;0;0;0
EC_017;40;6.683521843;0.683426543539;1;3;2;5;4;2;1;5
EC_018;1;6.5571620846;0.557039294901;1;0;0;0;0;0;0;0
EC_018;2;6.33925546194;0.339208911819;1;0;0;0;0;0;0;0
EC_018;3;6.35773366146;0.357611971372;1;0;0;0;0;0;0;0
EC_018;4;6.32065044083;0.320507491638;1;0;0;0;0;0;0;0
EC_018;5;6.33931374123;0.339219541375;1;0;0;0;0;0;0;0
EC_018;6;6.35796128056;0.356127498953;1;0;0;0;0;0;0;0
EC_018;7;6.37350022469;0.373380000748;1;0;0;0;0;0;0;0
EC_018;8;6.3722910211;0.372165299119;1;0;0;0;0;0;0;0
EC_018;9;6.3053893313;0.305269107359;1;0;0;0;0;0;0;0
EC_018;10;6.35618284595;0.356060422792;1;6;4;5;4;3;2;4
EC_018;11;6.30545640746;0.305333617766;1;0;0;0;0;0;0;0
EC_018;12;6.32634568341;0.326225826008;1;0;0;0;0;0;0;0
EC_018;13;6.37159496848;0.371475844152;1;0;0;0;0;0;0;0
EC_018;14;6.37346247144;0.373314024196;1;0;0;0;0;0;0;0
EC_018;15;6.33937348666;0.339253995797;1;0;0;0;0;0;0;0
EC_018;16;6.35894323158;0.358824107245;1;0;0;0;0;0;0;0
EC_018;17;6.42122582967;0.421104872662;1;0;0;0;0;0;0;0
EC_018;18;6.37318280416;0.373060014471;1;0;0;0;0;0;0;0
EC_018;19;6.41021251047;0.410091553462;1;0;0;0;0;0;0;0
EC_018;20;6.40379409158;0.403673501105;1;6;5;5;3;3;3;4
EC_018;21;6.3732949643;0.3731751069;1;0;0;0;0;0;0;0
EC_018;22;6.33927452183;0.339181788126;1;0;0;0;0;0;0;0
EC_018;23;6.32392287781;0.323804486552;1;0;0;0;0;0;0;0
EC_018;24;6.32055220908;0.320433451285;1;0;0;0;0;0;0;0
EC_018;25;6.28846268036;0.288345022179;1;0;0;0;0;0;0;0
EC_018;26;6.35623452758;0.356176614831;1;0;0;0;0;0;0;0
EC_018;27;6.44188088887;0.441757366098;1;0;0;0;0;0;0;0
EC_018;28;6.35521152449;0.355089101334;1;0;0;0;0;0;0;0
EC_018;29;6.32231781492;0.322192826004;1;0;0;0;0;0;0;0
EC_018;30;6.32233724134;0.322248906073;1;7;5;5;2;5;2;5
EC_018;31;6.40886805496;0.408752229458;1;0;0;0;0;0;0;0
EC_018;32;6.39431509375;0.388104134458;1;0;0;0;0;0;0;0
EC_018;33;6.36563068819;0.356186511313;1;0;0;0;0;0;0;0
EC_018;34;6.32245233377;0.322328077935;1;0;0;0;0;0;0;0
EC_018;35;6.3394574235;0.339339398777;1;0;0;0;0;0;0;0
EC_018;36;6.35613409661;0.35601387267;1;0;0;0;0;0;0;0
EC_018;37;6.32231451609;0.322256603336;1;0;0;0;0;0;0;0
EC_018;38;6.34351644759;0.34339805633;1;0;0;0;0;0;0;0
EC_018;39;6.33489697761;0.334775654065;1;0;0;0;0;0;0;0
EC_018;40;6.28836628129;0.288245324278;1;7;6;4;1;6;1;5
EC_019;1;6.32172398462;0.32167266988;1;0;0;0;0;0;0;0
EC_019;2;6.48202426381;0.481950223971;1;0;0;0;0;0;0;0
EC_019;3;6.36115056441;0.361078723773;1;0;0;0;0;0;0;0
EC_019;4;6.41893022698;0.41881183655;1;0;0;0;0;0;0;0
EC_019;5;6.51148038989;0.511406716586;1;0;0;0;0;0;0;0
EC_019;6;6.54944303349;0.549357264573;1;0;0;0;0;0;0;0
EC_019;7;6.4508146398;0.450742799168;1;0;0;0;0;0;0;0
EC_019;8;6.64850320406;0.648429897286;1;0;0;0;0;0;0;0
EC_019;9;6.40373446675;0.394818164391;1;0;0;0;0;0;0;0
EC_019;10;6.39471186958;0.394564889503;1;5;1;7;6;2;5;2
EC_019;11;6.46837710908;0.468299403906;1;0;0;0;0;0;0;0
EC_019;12;6.38146277061;0.381317623203;1;0;0;0;0;0;0;0
EC_019;13;6.32869839066;0.328624350823;1;0;0;0;0;0;0;0
EC_019;14;6.37635732065;0.376282547747;1;0;0;0;0;0;0;0
EC_019;15;6.43143342957;0.43136158894;1;0;0;0;0;0;0;0
EC_019;16;6.41115604409;0.411042418596;1;0;0;0;0;0;0;0
EC_019;17;6.47025046357;0.466421284474;1;0;0;0;0;0;0;0
EC_019;18;6.41240482491;0.412260044035;1;0;0;0;0;0;0;0
EC_019;19;6.44657860813;0.446428695788;1;0;0;0;0;0;0;0
EC_019;20;6.36047870787;0.360340158071;1;7;1;7;5;2;5;1
EC_019;21;6.51327787188;0.513159481442;1;0;0;0;0;0;0;0
EC_019;22;6.39935072194;0.399274849437;1;0;0;0;0;0;0;0
EC_019;23;6.51737718642;0.517332102758;1;0;0;0;0;0;0;0
EC_019;24;6.59721522244;0.597142282209;1;0;0;0;0;0;0;0
EC_019;25;6.46214713328;0.46205440022;1;0;0;0;0;0;0;0
EC_019;26;6.48248866219;0.482418287693;1;0;0;0;0;0;0;0
EC_019;27;6.44742493478;0.447351261481;1;0;0;0;0;0;0;0
EC_019;28;6.49853588055;0.498461474177;1;0;0;0;0;0;0;0
EC_019;29;6.50111151389;0.501039306723;1;0;0;0;0;0;0;0
EC_019;30;6.58959571683;0.584322027841;1;7;1;5;2;2;5;5
EC_019;31;6.35900450873;0.358885385232;1;0;0;0;0;0;0;0
EC_019;32;6.38986812479;0.389792985348;1;0;0;0;0;0;0;0
EC_019;33;6.48861820772;0.478769076713;1;0;0;0;0;0;0;0
EC_019;34;6.43089352522;0.430823150718;1;0;0;0;0;0;0;0
EC_019;35;6.36413085112;0.364060110084;1;0;0;0;0;0;0;0
EC_019;36;6.36069752857;0.360623855268;1;0;0;0;0;0;0;0
EC_019;37;6.37890143208;0.37875518508;1;0;0;0;0;0;0;0
EC_019;38;6.36142839706;0.361353624158;1;0;0;0;0;0;0;0
EC_019;39;6.36014259633;0.359995982789;1;0;0;0;0;0;0;0
EC_019;40;6.43051709495;0.430399804124;1;7;1;5;4;2;4;3
EC_020;1;6.55968745727;0.559563566201;1;0;0;0;0;0;0;0
EC_020;2;6.33896707833;0.338821561299;1;0;0;0;0;0;0;0
EC_020;3;6.3222494807;0.322129255045;1;0;0;0;0;0;0;0
EC_020;4;6.32242065565;0.322299330365;1;0;0;0;0;0;0;0
EC_020;5;6.37636458871;0.376246562298;1;0;0;0;0;0;0;0
EC_020;6;6.3390891367;0.338990170453;1;0;0;0;0;0;0;0
EC_020;7;6.28857346759;0.288453608474;1;0;0;0;0;0;0;0
EC_020;8;6.30521812343;0.305100097024;1;0;0;0;0;0;0;0
EC_020;9;6.35634884941;0.356230089917;1;0;0;0;0;0;0;0
EC_020;10;6.44334677441;0.44327419917;1;6;2;5;6;2;5;6
EC_020;11;6.37601747377;0.375893582699;1;0;0;0;0;0;0;0
EC_020;12;6.3733901033;0.373270610728;1;0;0;0;0;0;0;0
EC_020;13;6.52548252458;0.525363765087;1;0;0;0;0;0;0;0
EC_020;14;6.32240416127;0.322283569074;1;0;0;0;0;0;0;0
EC_020;15;6.3094194237;0.309296998794;1;0;0;0;0;0;0;0
EC_020;16;6.35735207387;0.356439751735;1;0;0;0;0;0;0;0
EC_020;17;6.33904588478;0.338927125291;1;0;0;0;0;0;0;0
EC_020;18;6.35594088856;0.355818463656;1;0;0;0;0;0;0;0
EC_020;19;6.39025248488;0.390126028012;1;0;0;0;0;0;0;0
EC_020;20;6.30819810696;0.308109403883;1;6;2;3;6;2;5;6
EC_020;21;6.35579317228;0.355673313166;1;0;0;0;0;0;0;0
EC_020;22;6.32204421738;0.321923258643;1;0;0;0;0;0;0;0
EC_020;23;6.32237117253;0.322264508909;1;0;0;0;0;0;0;0
EC_020;24;6.3426313951;0.342510069816;1;0;0;0;0;0;0;0
EC_020;25;6.474095586;0.473977926129;1;0;0;0;0;0;0;0
EC_020;26;6.38955239035;0.389424467314;1;0;0;0;0;0;0;0
EC_020;27;6.37326364644;0.373155516653;1;0;0;0;0;0;0;0
